"trial_type","trial_index","time_elapsed","internal_node_id","subject","rt","stimulus","key_press","button_pressed","response"
"pavlovia","0","7","0.0-0.0","28","","","","",""
"html-keyboard-response","1","1148","0.0-1.0","28","1139.869999999064","<p>Welcome to the study! Press any key to begin reading the instructions.</p>","32","",""
"html-button-response","2","8012","0.0-2.0","28","6861.6150000016205","<p>Before we begin, please close all browser tabs not pertaining to this study, especially those that may produce sound alerts or which may be distracting.</p><p>In this study, we will be asking you to listen to sequences of sounds and to make judgments about them. Therefore, we require that you complete this task using headphones, while seated in a quiet environment. If it is not currently possible for you to satisfy these requirements, please return at a later time to complete the experiment.</p><p>If you are currently accessing the experiment in either Safari or Microsoft Edge/Internet Explorer, please note that the task will NOT run correctly in these browsers. You should copy the URL from this page and return to the study from a different web browser before proceeding.</p><p>If the text instructions appear too large or too small on your screen, you should adjust your browser's zoom level at this time. When you are ready to continue, press the button below.</p>","","0",""
"html-button-response","3","19116","0.0-3.0","28","11101.415000000998","<p>Before you proceed to the main task, you will be asked to perform an audio test that will require headphones in order for you to respond correctly.</p><p>In this test, you will hear several sets of three tones. For each set, your goal is to determine which of the three tones is the quietest.</p><p>After hearing each set of tones, you will be prompted to press the 1, 2, or 3 key to indicate whether the first, second, or third tone was the quietest.</p><p>Press the button below to begin the test.</p>","","0",""
"audio-keyboard-response","4","25258","0.0-4.0-0.0","28","null","headphone_check/antiphase_HC_SOI.wav","null","",""
"html-keyboard-response","5","31291","0.0-4.0-1.0","28","6031.025000000227","<p>Press the 1, 2, or 3 key on your keyboard to indicate which tone was the quietest.</p><p>If you were not able to hear three tones, check that your headphones are working and that your volume is turned up, then press 0.</p>","48","",""
"audio-keyboard-response","6","36798","0.0-4.0-0.1","28","null","headphone_check/antiphase_HC_IOS.wav","null","",""
"html-keyboard-response","7","39303","0.0-4.0-1.1","28","2504.4550000020536","<p>Press the 1, 2, or 3 key on your keyboard to indicate which tone was the quietest.</p><p>If you were not able to hear three tones, check that your headphones are working and that your volume is turned up, then press 0.</p>","50","",""
"audio-keyboard-response","8","44815","0.0-4.0-0.2","28","null","headphone_check/antiphase_HC_SIO.wav","null","",""
"html-keyboard-response","9","46087","0.0-4.0-1.2","28","1270.7049999989977","<p>Press the 1, 2, or 3 key on your keyboard to indicate which tone was the quietest.</p><p>If you were not able to hear three tones, check that your headphones are working and that your volume is turned up, then press 0.</p>","51","",""
"audio-keyboard-response","10","51595","0.0-4.0-0.3","28","null","headphone_check/antiphase_HC_OIS.wav","null","",""
"html-keyboard-response","11","53952","0.0-4.0-1.3","28","2356.5249999992375","<p>Press the 1, 2, or 3 key on your keyboard to indicate which tone was the quietest.</p><p>If you were not able to hear three tones, check that your headphones are working and that your volume is turned up, then press 0.</p>","48","",""
"audio-keyboard-response","12","59461","0.0-4.0-0.4","28","null","headphone_check/antiphase_HC_ISO.wav","null","",""
"html-keyboard-response","13","60178","0.0-4.0-1.4","28","716.710000000603","<p>Press the 1, 2, or 3 key on your keyboard to indicate which tone was the quietest.</p><p>If you were not able to hear three tones, check that your headphones are working and that your volume is turned up, then press 0.</p>","50","",""
"audio-keyboard-response","14","65684","0.0-4.0-0.5","28","null","headphone_check/antiphase_HC_OSI.wav","null","",""
"html-keyboard-response","15","65855","0.0-4.0-1.5","28","170.36500000176602","<p>Press the 1, 2, or 3 key on your keyboard to indicate which tone was the quietest.</p><p>If you were not able to hear three tones, check that your headphones are working and that your volume is turned up, then press 0.</p>","50","",""
"html-button-response","16","86879","0.0-5.0","28","19521.935000000667","<p>Next, you will be asked to repeatedly tap your finger at the rate that feels most natural and comfortable to you.</p><p>If you are right-handed, you should tap the J key with your right index finger during this task. If you are left-handed, you should instead tap the F key with your left index finger.</p><p>A cross (+) will be displayed on the screen to indicate when you should begin tapping. You should continue tapping until the cross disappears.</p><p>Press the button below to begin the tapping task.</p>","","0",""
"audio-multiple-response","17","108885","0.0-6.0","28","348,784,1242,1712,2188,2630,3082,3675,3872,4110,4301,4493,4696,4888,5074,5265,5462,5660,5834,6043,6235,6583,6780,6960,7129,7314,7564,7715,7854,8580,8760,8940,9102,9294,9462,9630,9822,9996,10170,10339,10513,10675,10861,11029,11192,11360,11529,11691,11877,11964,12144,12353,12527,12696,12852,13026,13201,13369,13526,13665,13839,14025,14205,14379,14553,14745,14913,15105,15279,15464,15627,15836,16010,16179,16341,16504,16678,16846,17026,17235,17409,17845,17990,18199,18396,18564,18739,18913,19087,19249,19389,19870","","74,74,74,74,74,74,74,74,74,74,74,74,74,74,74,74,74,74,74,74,74,74,74,74,74,74,74,74,74,74,74,74,74,74,74,74,74,74,74,74,74,74,74,74,74,74,74,74,74,74,74,74,74,74,74,74,74,74,74,74,74,74,74,74,74,74,74,74,74,74,74,74,74,74,74,74,74,74,74,74,74,74,74,74,74,74,74,74,74,74,74,74","",""
"html-button-response","18","158666","0.0-7.0","28","48276.724999999715","<p>Now you are ready to proceed to the main task.</p><p>On each trial, you will hear a series of clicks from a metronome, followed by a sequence of piano tones. Your goal is to determine how much faster or slower this tone sequence is, compared to the metronome.</p><p>After listening to each tone sequence, you will be given a slider with which to respond. The slider will range from ""Half as Fast"" on the left to ""Twice as Fast"" on the right. If the tone sequence was slower than the metronome, you should move the slider to the left by a distance which represents how much slower the tone sequence was. If the tone sequence was faster than the metronome, you should instead move the slider to the right by a distance which represents how much faster it was. If the tone sequence was played at the same rate as the metronome, you should place the slider in the center of the range, where it is marked ""Equal Rates"".</p><p>In addition to listening to the sounds on each trial, you should also tap along with <strong>both</strong> the metronome and piano tones, trying to time your taps so that they land perfectly in sync with the start of each sound. If you are right handed, you should do this by tapping the J key with your right index finger. If you are left-handed, you should do this by tapping the F key with your left index finger.</p><p>Press the button below to try three practice trials, which will help you get comfortable with the task.</p>","","0",""
"audio-multiple-response","19","163010","0.0-8.0","28","","stimuli/reference_sequence.wav","","",""
"audio-multiple-response","20","167979","0.0-9.0","28","342,935,1486,2148,2897","stimuli/practice_sequence_741.wav","74,74,74,74,74","",""
"html-slider-response","21","180307","0.0-10.0","28","12324.584999998478","How fast was the tone sequence relative to the clicks?","","","29"
"audio-multiple-response","22","184048","0.0-11.0","28","","stimuli/reference_sequence.wav","","",""
"audio-multiple-response","23","188256","0.0-12.0","28","250,929,1521,2090","stimuli/practice_sequence_550.wav","74,74,74,74","",""
"html-slider-response","24","189915","0.0-13.0","28","1657.9100000017206","How fast was the tone sequence relative to the clicks?","","","50"
"audio-multiple-response","25","193655","0.0-14.0","28","505,993,1562,2113","stimuli/reference_sequence.wav","74,74,74,74","",""
"audio-multiple-response","26","197290","0.0-15.0","28","261,691,1103,1480","stimuli/practice_sequence_407.wav","74,74,74,74","",""
"html-slider-response","27","201619","0.0-16.0","28","4328.0049999993935","How fast was the tone sequence relative to the clicks?","","","100"
"html-button-response","28","209656","0.0-17.0","28","6534.090000001015","<p>You have completed the practice trials and are now ready to begin!</p><p>Remember, your goal is to determine how much faster or slower the piano sequence is, compared to the metronome, while you tap in time with each.</p><p>Please note that the trials are organized into three blocks, and you will have the opportunity to rest between blocks. If the practice trials were too loud or too quiet, adjust your volume now.</p><p><strong>It is critical that you do not adjust your volume any further until the study has concluded.</strong></p><p>Press the button below when you are ready to proceed.</p>","","0",""
"audio-multiple-response","29","213892","0.0-18.0","28","1051,1579","stimuli/reference_sequence.wav","74,74","",""
"audio-multiple-response","30","218101","0.0-19.0","28","215,563,1051,1579,2194","stimuli/sequence_7_550_19.wav","74,74,74,74,74","",""
"html-slider-response","31","219089","0.0-20.0","28","987.170000000333","How fast was the tone sequence relative to the clicks?","","","50"
"audio-multiple-response","32","222820","0.0-21.0","28","209,505,1039,1562,2125","stimuli/reference_sequence.wav","74,74,74,74,74","",""
"audio-multiple-response","33","226390","0.0-22.0","28","29,668,1196","stimuli/sequence_5_390_19.wav","74,74,74","",""
"html-slider-response","34","231747","0.0-23.0","28","5355.129999999946","How fast was the tone sequence relative to the clicks?","","","85"
"audio-multiple-response","35","235487","0.0-24.0","28","168,482,958,1480,2014","stimuli/reference_sequence.wav","74,74,74,74,74","",""
"audio-multiple-response","36","240863","0.0-25.0","28","221,714,1341,1852,2339,2827,3291","stimuli/sequence_7_843_19.wav","74,74,74,74,74,74,74","",""
"html-slider-response","37","243899","0.0-26.0","28","3035.6250000004657","How fast was the tone sequence relative to the clicks?","","","2"
"audio-multiple-response","38","247637","0.0-27.0","28","401,894,1411,1921","stimuli/reference_sequence.wav","74,74,74,74","",""
"audio-multiple-response","39","252485","0.0-28.0","28","215,505,1207,1591,2125,2595","stimuli/sequence_2_710_19.wav","74,74,74,74,74,74","",""
"html-slider-response","40","255936","0.0-29.0","28","3449.805000000226","How fast was the tone sequence relative to the clicks?","","","27"
"audio-multiple-response","41","259671","0.0-30.0","28","226,871,1376,1904","stimuli/reference_sequence.wav","74,74,74,74","",""
"audio-multiple-response","42","265680","0.0-31.0","28","197,772,1312,1765,2276,2775,3349,3843","stimuli/sequence_3_1000_16.wav","74,74,74,74,74,74,74,74","",""
"html-slider-response","43","268251","0.0-32.0","28","2569.9549999990268","How fast was the tone sequence relative to the clicks?","","","0"
"audio-multiple-response","44","271990","0.0-33.0","28","621,1103,1654,2206","stimuli/reference_sequence.wav","74,74,74,74","",""
"audio-multiple-response","45","276013","0.0-34.0","28","505,1022,1625","stimuli/sequence_2_504_16.wav","74,74,74","",""
"html-slider-response","46","278890","0.0-35.0","28","2876.0350000011385","How fast was the tone sequence relative to the clicks?","","","61"
"audio-multiple-response","47","282631","0.0-36.0","28","395,981,1573,2165","stimuli/reference_sequence.wav","74,74,74,74","",""
"audio-multiple-response","48","287246","0.0-37.0","28","493,1103,1689,2264","stimuli/sequence_4_652_19.wav","74,74,74,74","",""
"html-slider-response","49","290737","0.0-38.0","28","3489.750000000582","How fast was the tone sequence relative to the clicks?","","","34"
"audio-multiple-response","50","294473","0.0-39.0","28","389,946,1521,2101","stimuli/reference_sequence.wav","74,74,74,74","",""
"audio-multiple-response","51","297800","0.0-40.0","28","267,789,1277","stimuli/sequence_7_329_16.wav","74,74,74","",""
"html-slider-response","52","301645","0.0-41.0","28","3844.070000002801","How fast was the tone sequence relative to the clicks?","","","100"
"audio-multiple-response","53","305381","0.0-42.0","28","139,1022,1550,2113","stimuli/reference_sequence.wav","74,74,74,74","",""
"audio-multiple-response","54","310229","0.0-43.0","28","244,778,1324,1829,2363,2995","stimuli/sequence_3_710_13.wav","74,74,74,74,74,74","",""
"html-slider-response","55","314816","0.0-44.0","28","4586.520000000775","How fast was the tone sequence relative to the clicks?","","","23"
"audio-multiple-response","56","318553","0.0-45.0","28","23,522,1039,1666,2188","stimuli/reference_sequence.wav","74,74,74,74,74","",""
"audio-multiple-response","57","321990","0.0-46.0","28","540,1109,1631","stimuli/sequence_2_358_13.wav","74,74,74","",""
"html-slider-response","58","324881","0.0-47.0","28","2890.2100000013597","How fast was the tone sequence relative to the clicks?","","","90"
"audio-multiple-response","59","328614","0.0-48.0","28","273,563,1068,1625,2218","stimuli/reference_sequence.wav","74,74,74,74,74","",""
"audio-multiple-response","60","334291","0.0-49.0","28","23,493,1016,1474,1985,2467,2984,3500","stimuli/sequence_6_918_19.wav","74,74,74,74,74,74,74,74","",""
"html-slider-response","61","337200","0.0-50.0","28","2908.289999999397","How fast was the tone sequence relative to the clicks?","","","0"
"audio-multiple-response","62","340938","0.0-51.0","28","453,993,1544,2096","stimuli/reference_sequence.wav","74,74,74,74","",""
"audio-multiple-response","63","344264","0.0-52.0","28","221,255,714,1225","stimuli/sequence_3_329_13.wav","74,74,74,74","",""
"html-slider-response","64","349769","0.0-53.0","28","5503.44000000041","How fast was the tone sequence relative to the clicks?","","","100"
"audio-multiple-response","65","353506","0.0-54.0","28","261,923,1521,2038","stimuli/reference_sequence.wav","74,74,74,74","",""
"audio-multiple-response","66","359184","0.0-55.0","28","395,975,1591,2165,2699,3257,3860","stimuli/sequence_2_918_19.wav","74,74,74,74,74,74,74","",""
"html-slider-response","67","363029","0.0-56.0","28","3844.155000002531","How fast was the tone sequence relative to the clicks?","","","15"
"audio-multiple-response","68","366765","0.0-57.0","28","377,1016,1521,2043","stimuli/reference_sequence.wav","74,74,74,74","",""
"audio-multiple-response","69","370626","0.0-58.0","28","459,987,1585","stimuli/sequence_6_463_19.wav","74,74,74","",""
"html-slider-response","70","374336","0.0-59.0","28","3709.5249999983935","How fast was the tone sequence relative to the clicks?","","","67"
"audio-multiple-response","71","378074","0.0-60.0","28","151,546,1086,1596,2119","stimuli/reference_sequence.wav","74,74,74,74,74","",""
"audio-multiple-response","72","383455","0.0-61.0","28","476,1022,1474,1782,2206,2798","stimuli/sequence_5_843_16.wav","74,74,74,74,74,74","",""
"html-slider-response","73","385583","0.0-62.0","28","2127.039999999455","How fast was the tone sequence relative to the clicks?","","","30"
"audio-multiple-response","74","389324","0.0-63.0","28","412,940,1486,2020","stimuli/reference_sequence.wav","74,74,74,74","",""
"audio-multiple-response","75","392650","0.0-64.0","28","255,807,1341","stimuli/sequence_4_329_13.wav","74,74,74","",""
"html-slider-response","76","396608","0.0-65.0","28","3956.720000001951","How fast was the tone sequence relative to the clicks?","","","69"
"audio-multiple-response","77","400342","0.0-66.0","28","453,993,1515","stimuli/reference_sequence.wav","74,74,74","",""
"audio-multiple-response","78","404365","0.0-67.0","28","226,935,1556,2148","stimuli/sequence_3_504_13.wav","74,74,74,74","",""
"html-slider-response","79","407051","0.0-68.0","28","2685.2099999996717","How fast was the tone sequence relative to the clicks?","","","53"
"audio-multiple-response","80","410791","0.0-69.0","28","279,1057,1567,2072","stimuli/reference_sequence.wav","74,74,74,74","",""
"audio-multiple-response","81","414008","0.0-70.0","28","319,859,1382","stimuli/sequence_6_302_16.wav","74,74,74","",""
"html-slider-response","82","416514","0.0-71.0","28","2505.864999999176","How fast was the tone sequence relative to the clicks?","","","92"
"audio-multiple-response","83","420248","0.0-72.0","28","418,1027,1579,2119","stimuli/reference_sequence.wav","74,74,74,74","",""
"audio-multiple-response","84","425931","0.0-73.0","28","290,842,1382,1950,2554,3129,3611","stimuli/sequence_4_918_13.wav","74,74,74,74,74,74,74","",""
"html-slider-response","85","429306","0.0-74.0","28","3374.1300000001793","How fast was the tone sequence relative to the clicks?","","","10"
"audio-multiple-response","86","433043","0.0-75.0","28","505,1016,1521,2072","stimuli/reference_sequence.wav","74,74,74,74","",""
"audio-multiple-response","87","437890","0.0-76.0","28","52,499,1039,1515,2055,2577","stimuli/sequence_6_710_13.wav","74,74,74,74,74,74","",""
"html-slider-response","88","442330","0.0-77.0","28","4437.630000000354","How fast was the tone sequence relative to the clicks?","","","25"
"audio-multiple-response","89","446069","0.0-78.0","28","418,958,1492,2026","stimuli/reference_sequence.wav","74,74,74,74","",""
"audio-multiple-response","90","450272","0.0-79.0","28","459,1004,1544,2125","stimuli/sequence_4_550_13.wav","74,74,74,74","",""
"html-slider-response","91","451081","0.0-80.0","28","808.1249999995925","How fast was the tone sequence relative to the clicks?","","","50"
"audio-multiple-response","92","454818","0.0-81.0","28","354,894,1480,1962","stimuli/reference_sequence.wav","74,74,74,74","",""
"audio-multiple-response","93","458678","0.0-82.0","28","186,534,975,1556","stimuli/sequence_2_463_16.wav","74,74,74,74","",""
"html-slider-response","94","461642","0.0-83.0","28","2962.5149999993155","How fast was the tone sequence relative to the clicks?","","","61"
"audio-multiple-response","95","465377","0.0-84.0","28","215,650,1103,1643,2177","stimuli/reference_sequence.wav","74,74,74,74,74","",""
"audio-multiple-response","96","469586","0.0-85.0","28","192,534,1068,1585,2188","stimuli/sequence_6_550_13.wav","74,74,74,74,74","",""
"html-slider-response","97","470024","0.0-86.0","28","437.1150000006892","How fast was the tone sequence relative to the clicks?","","","50"
"audio-multiple-response","98","473760","0.0-87.0","28","186,534,1086,1637,2218","stimuli/reference_sequence.wav","74,74,74,74,74","",""
"audio-multiple-response","99","477620","0.0-88.0","28","348,906,1678","stimuli/sequence_4_463_19.wav","74,74,74","",""
"html-slider-response","100","480109","0.0-89.0","28","2487.670000002254","How fast was the tone sequence relative to the clicks?","","","62"
"audio-multiple-response","101","483850","0.0-90.0","28","180,511,1027,1602,2171","stimuli/reference_sequence.wav","74,74,74,74,74","",""
"audio-multiple-response","102","488946","0.0-91.0","28","488,1138,1765,2409,3036","stimuli/sequence_5_774_19.wav","74,74,74,74,74","",""
"html-slider-response","103","493177","0.0-92.0","28","4229.934999999474","How fast was the tone sequence relative to the clicks?","","","30"
"audio-multiple-response","104","496917","0.0-93.0","28","406,917,1492,2061","stimuli/reference_sequence.wav","74,74,74,74","",""
"audio-multiple-response","105","500481","0.0-94.0","28","493,1045,1596","stimuli/sequence_7_390_19.wav","74,74,74","",""
"html-slider-response","106","503839","0.0-95.0","28","3357.1249999987194","How fast was the tone sequence relative to the clicks?","","","100"
"audio-multiple-response","107","507575","0.0-96.0","28","383,911,1451,1997","stimuli/reference_sequence.wav","74,74,74,74","",""
"audio-multiple-response","108","511012","0.0-97.0","28","499,1004,1509","stimuli/sequence_5_358_13.wav","74,74,74","",""
"html-slider-response","109","514881","0.0-98.0","28","3868.179999997723","How fast was the tone sequence relative to the clicks?","","","73"
"audio-multiple-response","110","518617","0.0-99.0","28","174,563,1057,1562,2119","stimuli/reference_sequence.wav","74,74,74,74,74","",""
"audio-multiple-response","111","522326","0.0-100.0","28","430,946,1509","stimuli/sequence_3_425_19.wav","74,74,74","",""
"html-slider-response","112","525070","0.0-101.0","28","2742.900000001071","How fast was the tone sequence relative to the clicks?","","","76"
"audio-multiple-response","113","528805","0.0-102.0","28","441,998,1550,2159","stimuli/reference_sequence.wav","74,74,74,74","",""
"audio-multiple-response","114","533652","0.0-103.0","28","418,1173,1765,2334","stimuli/sequence_7_710_19.wav","74,74,74,74","",""
"html-slider-response","115","535904","0.0-104.0","28","2250.935000000056","How fast was the tone sequence relative to the clicks?","","","35"
"audio-multiple-response","116","539637","0.0-105.0","28","302,569,1022,1556,2101","stimuli/reference_sequence.wav","74,74,74,74,74","",""
"audio-multiple-response","117","543660","0.0-106.0","28","174,569,1016,1486,2072","stimuli/sequence_5_504_13.wav","74,74,74,74,74","",""
"html-slider-response","118","547328","0.0-107.0","28","3667.1749999986496","How fast was the tone sequence relative to the clicks?","","","55"
"html-button-response","119","556114","0.0-108.0","28","7280.865000000689","<h3>You have completed block 1 of 3</h3><p>When you are ready to continue, press the button below to begin the second block.</p><p><em>Remember to use the J or F key to tap in time with the clicks and tones on each trial.</em></p><p><em>Additionally, please do not adjust your volume until the study has concluded.</em></p>","","0",""
"audio-multiple-response","120","560350","0.0-109.0","28","1033,1521,2061","stimuli/reference_sequence.wav","74,74,74","",""
"audio-multiple-response","121","565453","0.0-110.0","28","447,946,1399,1927,2409,2932","stimuli/sequence_4_774_13.wav","74,74,74,74,74,74","",""
"html-slider-response","122","569994","0.0-111.0","28","4540.5900000005495","How fast was the tone sequence relative to the clicks?","","","34"
"audio-multiple-response","123","573731","0.0-112.0","28","192,557,1010,1585,2125","stimuli/reference_sequence.wav","74,74,74,74,74","",""
"audio-multiple-response","124","578137","0.0-113.0","28","139,551,1062,1538,2101","stimuli/sequence_7_599_16.wav","74,74,74,74,74","",""
"html-slider-response","125","582163","0.0-114.0","28","4025.43499999959","How fast was the tone sequence relative to the clicks?","","","45"
"audio-multiple-response","126","585898","0.0-115.0","28","122,505,1016,1533,2072","stimuli/reference_sequence.wav","74,74,74,74,74","",""
"audio-multiple-response","127","591907","0.0-116.0","28","151,598,1091,1620,2142,2624,3135","stimuli/sequence_6_1000_16.wav","74,74,74,74,74,74,74","",""
"html-slider-response","128","595810","0.0-117.0","28","3902.38500000129","How fast was the tone sequence relative to the clicks?","","","4"
"audio-multiple-response","129","599546","0.0-118.0","28","795,1097,1591,2136","stimuli/reference_sequence.wav","74,74,74,74","",""
"audio-multiple-response","130","602757","0.0-119.0","28","464,998","stimuli/sequence_4_302_16.wav","74,74","",""
"html-slider-response","131","605820","0.0-120.0","28","3062.3749999976717","How fast was the tone sequence relative to the clicks?","","","100"
"audio-multiple-response","132","609560","0.0-121.0","28","528,1080,1596","stimuli/reference_sequence.wav","74,74,74","",""
"audio-multiple-response","133","614942","0.0-122.0","28","435,946,1469,2026,2548,3199","stimuli/sequence_2_843_16.wav","74,74,74,74,74,74","",""
"html-slider-response","134","618400","0.0-123.0","28","3457.8799999980256","How fast was the tone sequence relative to the clicks?","","","1"
"audio-multiple-response","135","622134","0.0-124.0","28","1027,1596,2130","stimuli/reference_sequence.wav","74,74,74","",""
"audio-multiple-response","136","626157","0.0-125.0","28","139,615,1103,1654,2200","stimuli/sequence_4_504_16.wav","74,74,74,74,74","",""
"html-slider-response","137","629585","0.0-126.0","28","3426.5850000010105","How fast was the tone sequence relative to the clicks?","","","62"
"audio-multiple-response","138","633321","0.0-127.0","28","499,1027,1544,2148","stimuli/reference_sequence.wav","74,74,74,74","",""
"audio-multiple-response","139","636537","0.0-128.0","28","157,697,1231","stimuli/sequence_5_302_16.wav","74,74,74","",""
"html-slider-response","140","638906","0.0-129.0","28","2368.1849999993574","How fast was the tone sequence relative to the clicks?","","","100"
"audio-multiple-response","141","642644","0.0-130.0","28","163,569,1062,1625,2177","stimuli/reference_sequence.wav","74,74,74,74,74","",""
"audio-multiple-response","142","646661","0.0-131.0","28","366,993,1591,2206","stimuli/sequence_6_504_19.wav","74,74,74,74","",""
"html-slider-response","143","652346","0.0-132.0","28","5684.750000000349","How fast was the tone sequence relative to the clicks?","","","60"
"audio-multiple-response","144","656083","0.0-133.0","28","476,1022,1585,2212","stimuli/reference_sequence.wav","74,74,74,74","",""
"audio-multiple-response","145","659792","0.0-134.0","28","424,1039,1591","stimuli/sequence_7_425_16.wav","74,74,74","",""
"html-slider-response","146","662347","0.0-135.0","28","2553.585000001476","How fast was the tone sequence relative to the clicks?","","","68"
"audio-multiple-response","147","666079","0.0-136.0","28","412,969,1556,2130","stimuli/reference_sequence.wav","74,74,74,74","",""
"audio-multiple-response","148","670689","0.0-137.0","28","441,1033,1678,2293","stimuli/sequence_6_652_16.wav","74,74,74,74","",""
"html-slider-response","149","676162","0.0-138.0","28","5472.42499999993","How fast was the tone sequence relative to the clicks?","","","21"
"audio-multiple-response","150","679901","0.0-139.0","28","290,685,1016,1567,2014","stimuli/reference_sequence.wav","74,74,74,74,74","",""
"audio-multiple-response","151","683344","0.0-140.0","28","447,929,1556","stimuli/sequence_3_358_19.wav","74,74,74","",""
"html-slider-response","152","685820","0.0-141.0","28","2475.3499999970663","How fast was the tone sequence relative to the clicks?","","","88"
"audio-multiple-response","153","689555","0.0-142.0","28","192,540,1068,1591,2113","stimuli/reference_sequence.wav","74,74,74,74,74","",""
"audio-multiple-response","154","694658","0.0-143.0","28","511,1080,1736,2386,2966","stimuli/sequence_7_774_16.wav","74,74,74,74,74","",""
"html-slider-response","155","699746","0.0-144.0","28","5086.845000001718","How fast was the tone sequence relative to the clicks?","","","18"
"audio-multiple-response","156","703482","0.0-145.0","28","197,517,981,1498,2003","stimuli/reference_sequence.wav","74,74,74,74,74","",""
"audio-multiple-response","157","707052","0.0-146.0","28","168,668,1184","stimuli/sequence_3_390_13.wav","74,74,74","",""
"html-slider-response","158","710325","0.0-147.0","28","3272.2949999988778","How fast was the tone sequence relative to the clicks?","","","83"
"audio-multiple-response","159","714059","0.0-148.0","28","139,528,993,1515,2078","stimuli/reference_sequence.wav","74,74,74,74,74","",""
"audio-multiple-response","160","720067","0.0-149.0","28","139,621,1057,1591,2084,2537,3001,3518,3988","stimuli/sequence_5_1000_13.wav","74,74,74,74,74,74,74,74,74","",""
"html-slider-response","161","725254","0.0-150.0","28","5186.265000000247","How fast was the tone sequence relative to the clicks?","","","0"
"audio-multiple-response","162","728990","0.0-151.0","28","470,1039,1562,2067","stimuli/reference_sequence.wav","32,74,74,74","",""
"audio-multiple-response","163","734093","0.0-152.0","28","424,946,1498,2003,2566,3024","stimuli/sequence_2_774_16.wav","74,74,74,74,74,74","",""
"html-slider-response","164","737943","0.0-153.0","28","3849.6199999972014","How fast was the tone sequence relative to the clicks?","","","3"
"audio-multiple-response","165","741680","0.0-154.0","28","383,1062,1567,2125","stimuli/reference_sequence.wav","74,74,74,74","",""
"audio-multiple-response","166","747688","0.0-155.0","28","250,772,1242,1683,2218,2711,3199,3651","stimuli/sequence_7_1000_13.wav","74,74,74,74,74,74,74,74","",""
"html-slider-response","167","749973","0.0-156.0","28","2284.0399999986403","How fast was the tone sequence relative to the clicks?","","","0"
"audio-multiple-response","168","753714","0.0-157.0","28","110,505,1033,1585,2119","stimuli/reference_sequence.wav","74,74,74,74,74","",""
"audio-multiple-response","169","757040","0.0-158.0","28","261,743,1248","stimuli/sequence_6_329_19.wav","74,74,74","",""
"html-slider-response","170","759969","0.0-159.0","28","2927.8349999985658","How fast was the tone sequence relative to the clicks?","","","100"
"audio-multiple-response","171","763705","0.0-160.0","28","128,534,1057,1643,2148","stimuli/reference_sequence.wav","74,74,74,74,74","",""
"audio-multiple-response","172","767275","0.0-161.0","28","255,720,1196,1666","stimuli/sequence_2_390_19.wav","74,74,74,74","",""
"html-slider-response","173","770595","0.0-162.0","28","3318.9299999976065","How fast was the tone sequence relative to the clicks?","","","81"
"audio-multiple-response","174","774334","0.0-163.0","28","203,540,1039,1533,2020","stimuli/reference_sequence.wav","74,74,74,74,74","",""
"audio-multiple-response","175","778537","0.0-164.0","28","476,993,1538,2067","stimuli/sequence_3_550_19.wav","74,74,74,74","",""
"html-slider-response","176","779251","0.0-165.0","28","713.4949999999953","How fast was the tone sequence relative to the clicks?","","","50"
"audio-multiple-response","177","782989","0.0-166.0","28","848,1144,1666,2177","stimuli/reference_sequence.wav","74,74,74,74","",""
"audio-multiple-response","178","786554","0.0-167.0","28","12,476,987,1463","stimuli/sequence_6_390_13.wav","74,74,74,74","",""
"html-slider-response","179","789967","0.0-168.0","28","3412.239999997895","How fast was the tone sequence relative to the clicks?","","","68"
"audio-multiple-response","180","793706","0.0-169.0","28","418,1022,1596,2125","stimuli/reference_sequence.wav","74,74,74,74","",""
"audio-multiple-response","181","799087","0.0-170.0","28","151,708,1265,1782,2374,2897","stimuli/sequence_4_843_16.wav","74,74,74,74,74,74","",""
"html-slider-response","182","801573","0.0-171.0","28","2484.380000001751","How fast was the tone sequence relative to the clicks?","","","13"
"audio-multiple-response","183","805310","0.0-172.0","28","430,981,1527,2107","stimuli/reference_sequence.wav","74,74,74,74","",""
"audio-multiple-response","184","809519","0.0-173.0","28","412,987,1550,2125","stimuli/sequence_2_550_19.wav","74,74,74,74","",""
"html-slider-response","185","810372","0.0-174.0","28","851.6550000022398","How fast was the tone sequence relative to the clicks?","","","50"
"audio-multiple-response","186","814111","0.0-175.0","28","180,540,1086,1602,2159","stimuli/reference_sequence.wav","74,74,74,74,74","",""
"audio-multiple-response","187","817681","0.0-176.0","28","116,528,1057,1533","stimuli/sequence_4_390_13.wav","74,74,74,74","",""
"html-slider-response","188","819590","0.0-177.0","28","1908.0100000029197","How fast was the tone sequence relative to the clicks?","","","61"
"audio-multiple-response","189","823324","0.0-178.0","28","366,929,1440,1945","stimuli/reference_sequence.wav","74,74,74,74","",""
"audio-multiple-response","190","826650","0.0-179.0","28","255,795,1324","stimuli/sequence_2_329_16.wav","74,74,74","",""
"html-slider-response","191","828942","0.0-180.0","28","2291.5199999988545","How fast was the tone sequence relative to the clicks?","","","100"
"audio-multiple-response","192","832676","0.0-181.0","28","203,528,1027,1562,2136","stimuli/reference_sequence.wav","74,74,74,74,74","",""
"audio-multiple-response","193","837779","0.0-182.0","28","35,522,1086,1620,2206,2723,3257","stimuli/sequence_3_774_16.wav","74,74,74,74,74,74,74","",""
"html-slider-response","194","841466","0.0-183.0","28","3686.714999999851","How fast was the tone sequence relative to the clicks?","","","19"
"audio-multiple-response","195","845197","0.0-184.0","28","261,575,1086,1602,2148","stimuli/reference_sequence.wav","74,74,74,74,74","",""
"audio-multiple-response","196","848907","0.0-185.0","28","453,1016,1544","stimuli/sequence_5_425_13.wav","74,74,74","",""
"html-slider-response","197","850845","0.0-186.0","28","1936.9999999981374","How fast was the tone sequence relative to the clicks?","","","66"
"audio-multiple-response","198","854585","0.0-187.0","28","453,1022,1556,2142","stimuli/reference_sequence.wav","74,74,74,74","",""
"audio-multiple-response","199","860262","0.0-188.0","28","459,993,1585,2113,2688,3199,3785","stimuli/sequence_3_918_13.wav","74,74,74,74,74,74,74","",""
"html-slider-response","200","865348","0.0-189.0","28","5084.930000000866","How fast was the tone sequence relative to the clicks?","","","0"
"audio-multiple-response","201","869080","0.0-190.0","28","464,981,1492,2020","stimuli/reference_sequence.wav","74,74,74,74","",""
"audio-multiple-response","202","873689","0.0-191.0","28","313,842,1602,2107,2752","stimuli/sequence_5_652_13.wav","74,74,74,74,74","",""
"html-slider-response","203","876853","0.0-192.0","28","3162.5849999982165","How fast was the tone sequence relative to the clicks?","","","39"
"audio-multiple-response","204","880592","0.0-193.0","28","830,1097,1556,2177","stimuli/reference_sequence.wav","74,74,74,74","",""
"audio-multiple-response","205","883808","0.0-194.0","28","58,476,969","stimuli/sequence_7_302_19.wav","74,74,74","",""
"html-slider-response","206","885906","0.0-195.0","28","2097.0149999993155","How fast was the tone sequence relative to the clicks?","","","100"
"audio-multiple-response","207","889642","0.0-196.0","28","412,981,1457,2119","stimuli/reference_sequence.wav","74,74,74,74","",""
"audio-multiple-response","208","894048","0.0-197.0","28","459,987,1498,2072","stimuli/sequence_5_599_16.wav","74,74,74,74","",""
"html-slider-response","209","896341","0.0-198.0","28","2291.9499999989057","How fast was the tone sequence relative to the clicks?","","","46"
"html-button-response","210","899902","0.0-199.0","28","2056.4900000026682","<h3>You have completed block 2 of 3</h3><p>When you are ready to continue, press the button below to begin the final block.</p><p><em>Remember to use the J or F key to tap in time with the clicks and tones on each trial.</em></p><p><em>Additionally, please do not adjust your volume until the study has concluded.</em></p>","","0",""
"audio-multiple-response","211","904143","0.0-200.0","28","186,563,1062,1498,2136","stimuli/reference_sequence.wav","74,74,74,74,74","",""
"audio-multiple-response","212","909519","0.0-201.0","28","447,969,1527,2049,2682,3239","stimuli/sequence_3_843_19.wav","74,74,74,74,74,74","",""
"html-slider-response","213","911285","0.0-202.0","28","1765.690000000177","How fast was the tone sequence relative to the clicks?","","","16"
"audio-multiple-response","214","915022","0.0-203.0","28","267,627,1097,1614,2090","stimuli/reference_sequence.wav","74,74,74,74,74","",""
"audio-multiple-response","215","918349","0.0-204.0","28","395,929,1445","stimuli/sequence_5_329_19.wav","74,74,74","",""
"html-slider-response","216","920087","0.0-205.0","28","1737.6549999971176","How fast was the tone sequence relative to the clicks?","","","100"
"audio-multiple-response","217","923823","0.0-206.0","28","482,975,1631,2130","stimuli/reference_sequence.wav","74,74,74,74","",""
"audio-multiple-response","218","928438","0.0-207.0","28","464,1027,1527,2084,2682","stimuli/sequence_3_652_19.wav","74,74,74,74,74","",""
"html-slider-response","219","930511","0.0-208.0","28","2072.1649999978254","How fast was the tone sequence relative to the clicks?","","","41"
"audio-multiple-response","220","934243","0.0-209.0","28","308,911,1509,2014","stimuli/reference_sequence.wav","74,74,74,74","",""
"audio-multiple-response","221","939926","0.0-210.0","28","87,569,1062,1562,2125,2746","stimuli/sequence_7_918_16.wav","74,74,74,74,74,74","",""
"html-slider-response","222","942486","0.0-211.0","28","2557.409999997588","How fast was the tone sequence relative to the clicks?","","","0"
"audio-multiple-response","223","946225","0.0-212.0","28","139,522,1062,1579,2194","stimuli/reference_sequence.wav","74,74,74,74,74","",""
"audio-multiple-response","224","950434","0.0-213.0","28","192,592,1045,1585,2154","stimuli/sequence_5_550_19.wav","74,74,74,74,74","",""
"html-slider-response","225","951150","0.0-214.0","28","715.3849999995437","How fast was the tone sequence relative to the clicks?","","","50"
"audio-multiple-response","226","954886","0.0-215.0","28","174,517,1016,1556,2101","stimuli/reference_sequence.wav","74,74,74,74,74","",""
"audio-multiple-response","227","958323","0.0-216.0","28","418,848,1300","stimuli/sequence_4_358_19.wav","74,74,74","",""
"html-slider-response","228","960678","0.0-217.0","28","2354.715000001248","How fast was the tone sequence relative to the clicks?","","","100"
"audio-multiple-response","229","964418","0.0-218.0","28","424,964,1509,2078","stimuli/reference_sequence.wav","74,74,74,74","",""
"audio-multiple-response","230","968824","0.0-219.0","28","430,819,1202,1689,2235","stimuli/sequence_3_599_16.wav","74,74,74,74,74","",""
"html-slider-response","231","971945","0.0-220.0","28","3119.654999998631","How fast was the tone sequence relative to the clicks?","","","46"
"audio-multiple-response","232","975680","0.0-221.0","28","93,540,987,1538,2101","stimuli/reference_sequence.wav","74,74,74,74,74","",""
"audio-multiple-response","233","979384","0.0-222.0","28","447,946,1428","stimuli/sequence_4_425_16.wav","74,74,74","",""
"html-slider-response","234","981521","0.0-223.0","28","2135.88499999966","How fast was the tone sequence relative to the clicks?","","","66"
"audio-multiple-response","235","985259","0.0-224.0","28","284,621,1103,1654,2200","stimuli/reference_sequence.wav","74,74,74,74,74","",""
"audio-multiple-response","236","988475","0.0-225.0","28","29,546,1039","stimuli/sequence_3_302_16.wav","74,74,74","",""
"html-slider-response","237","990603","0.0-226.0","28","2127.29000000027","How fast was the tone sequence relative to the clicks?","","","100"
"audio-multiple-response","238","994338","0.0-227.0","28","528,1474,1788","stimuli/reference_sequence.wav","74,74,74","",""
"audio-multiple-response","239","999185","0.0-228.0","28","17,621,1387,1985,2554","stimuli/sequence_5_710_16.wav","74,74,74,74,74","",""
"html-slider-response","240","1004742","0.0-229.0","28","5556.0450000013225","How fast was the tone sequence relative to the clicks?","","","38"
"audio-multiple-response","241","1008479","0.0-230.0","28","453,1016,1550,2113","stimuli/reference_sequence.wav","74,74,74,74","",""
"audio-multiple-response","242","1012879","0.0-231.0","28","447,1103,1654,2258","stimuli/sequence_4_599_19.wav","74,74,74,74","",""
"html-slider-response","243","1014061","0.0-232.0","28","1180.9250000005122","How fast was the tone sequence relative to the clicks?","","","50"
"audio-multiple-response","244","1017796","0.0-233.0","28","453,1080,2229","stimuli/reference_sequence.wav","74,74,74","",""
"audio-multiple-response","245","1021657","0.0-234.0","28","157,743,1376,1916","stimuli/sequence_7_463_13.wav","74,74,74,74","",""
"html-slider-response","246","1023341","0.0-235.0","28","1682.8149999999441","How fast was the tone sequence relative to the clicks?","","","59"
"audio-multiple-response","247","1027079","0.0-236.0","28","517,1051,1591,2148","stimuli/reference_sequence.wav","74,74,74,74","",""
"audio-multiple-response","248","1031485","0.0-237.0","28","232,1115,1660,2235","stimuli/sequence_2_599_13.wav","74,74,74,74","",""
"html-slider-response","249","1033419","0.0-238.0","28","1933.0949999967124","How fast was the tone sequence relative to the clicks?","","","40"
"audio-multiple-response","250","1037151","0.0-239.0","28","534,1074,1614,2142","stimuli/reference_sequence.wav","74,74,74,74","",""
"audio-multiple-response","251","1042248","0.0-240.0","28","447,1144,1753,2572","stimuli/sequence_6_774_19.wav","74,74,74,74","",""
"html-slider-response","252","1044301","0.0-241.0","28","2051.4250000014435","How fast was the tone sequence relative to the clicks?","","","0"
"audio-multiple-response","253","1048042","0.0-242.0","28","598,1138,1666,2218","stimuli/reference_sequence.wav","74,74,74,74","",""
"audio-multiple-response","254","1051258","0.0-243.0","28","81,540,1004","stimuli/sequence_2_302_19.wav","74,74,74","",""
"html-slider-response","255","1053029","0.0-244.0","28","1770.2549999994226","How fast was the tone sequence relative to the clicks?","","","100"
"audio-multiple-response","256","1056767","0.0-245.0","28","464,935,1521,2096","stimuli/reference_sequence.wav","74,74,74,74","",""
"audio-multiple-response","257","1062444","0.0-246.0","28","476,1039,1556,2380,2972,3535","stimuli/sequence_5_918_19.wav","74,74,74,74,74,74","",""
"html-slider-response","258","1113024","0.0-247.0","28","50577.61499999836","How fast was the tone sequence relative to the clicks?","","","7"
"audio-multiple-response","259","1116863","0.0-248.0","28","215,546,1051,1654,2177","stimuli/reference_sequence.wav","74,74,74,74,74","",""
"audio-multiple-response","260","1121710","0.0-249.0","28","470,1086,1654,2235,2856","stimuli/sequence_4_710_16.wav","74,74,74,74,74","",""
"html-slider-response","261","1135257","0.0-250.0","28","13545.369999999879","How fast was the tone sequence relative to the clicks?","","","35"
"audio-multiple-response","262","1138992","0.0-251.0","28","186,540,1051,1660,2229","stimuli/reference_sequence.wav","74,74,74,74,74","",""
"audio-multiple-response","263","1144995","0.0-252.0","28","482,975,1474,2003,2473,3001,3483","stimuli/sequence_2_1000_13.wav","74,74,74,74,74,74,74","",""
"html-slider-response","264","1146783","0.0-253.0","28","1786.5049999998882","How fast was the tone sequence relative to the clicks?","","","0"
"audio-multiple-response","265","1150516","0.0-254.0","28","360,580,1039,1596,2136","stimuli/reference_sequence.wav","74,74,74,74,74","",""
"audio-multiple-response","266","1155131","0.0-255.0","28","209,615,1080,1527,2020,2456","stimuli/sequence_7_652_13.wav","74,74,74,74,74,74","",""
"html-slider-response","267","1157468","0.0-256.0","28","2335.950000000652","How fast was the tone sequence relative to the clicks?","","","43"
"audio-multiple-response","268","1161203","0.0-257.0","28","35,592,1161,1701","stimuli/reference_sequence.wav","74,74,74,74","",""
"audio-multiple-response","269","1165609","0.0-258.0","28","540,1086,1660,2206","stimuli/sequence_6_599_16.wav","74,74,74,74","",""
"html-slider-response","270","1166731","0.0-259.0","28","1121.3749999988358","How fast was the tone sequence relative to the clicks?","","","50"
"audio-multiple-response","271","1170468","0.0-260.0","28","174,621,1149,1712,2212","stimuli/reference_sequence.wav","74,74,74,74,74","",""
"audio-multiple-response","272","1176476","0.0-261.0","28","505,1022,1573,2107,2601,3140,3622","stimuli/sequence_4_1000_19.wav","74,74,74,74,74,74,74","",""
"html-slider-response","273","1178371","0.0-262.0","28","1893.450000003213","How fast was the tone sequence relative to the clicks?","","","7"
"audio-multiple-response","274","1182101","0.0-263.0","28","104,592,1091,1591,2142","stimuli/reference_sequence.wav","74,74,74,74,74","",""
"audio-multiple-response","275","1185805","0.0-264.0","28","215,610,1132,1666","stimuli/sequence_6_425_16.wav","74,74,74,74","",""
"html-slider-response","276","1190055","0.0-265.0","28","4249.319999998901","How fast was the tone sequence relative to the clicks?","","","100"
"audio-multiple-response","277","1193793","0.0-266.0","28","238,964,1573,2113","stimuli/reference_sequence.wav","74,74,74,74","",""
"audio-multiple-response","278","1197816","0.0-267.0","28","511,1103,1730","stimuli/sequence_7_504_13.wav","74,74,74","",""
"html-slider-response","279","1199667","0.0-268.0","28","1849.9249999986496","How fast was the tone sequence relative to the clicks?","","","64"
"audio-multiple-response","280","1203406","0.0-269.0","28","93,598,1138,1637,2165","stimuli/reference_sequence.wav","74,74,74,74,74","",""
"audio-multiple-response","281","1207267","0.0-270.0","28","238,627,1155,1666","stimuli/sequence_3_463_16.wav","74,74,74,74","",""
"html-slider-response","282","1212637","0.0-271.0","28","5369.165000000037","How fast was the tone sequence relative to the clicks?","","","84"
"audio-multiple-response","283","1216375","0.0-272.0","28","499,1051,1509,2049","stimuli/reference_sequence.wav","74,74,74,74","",""
"audio-multiple-response","284","1219818","0.0-273.0","28","517,1051,1521","stimuli/sequence_7_358_13.wav","74,74,74","",""
"html-slider-response","285","1223241","0.0-274.0","28","3421.9249999988824","How fast was the tone sequence relative to the clicks?","","","100"
"audio-multiple-response","286","1226975","0.0-275.0","28","180,569,1033,1596,2096","stimuli/reference_sequence.wav","74,74,74,74,74","",""
"audio-multiple-response","287","1230685","0.0-276.0","28","482,1022,1521","stimuli/sequence_2_425_13.wav","74,74,74","",""
"html-slider-response","288","1245310","0.0-277.0","28","14623.400000000373","How fast was the tone sequence relative to the clicks?","","","100"
"audio-multiple-response","289","1249041","0.0-278.0","28","41,522,1033,1643,2177","stimuli/reference_sequence.wav","74,74,74,74,74","",""
"audio-multiple-response","290","1254416","0.0-279.0","28","482,1039,1515,2009,2560,3106","stimuli/sequence_6_843_13.wav","74,74,74,74,74,74","",""
"html-slider-response","291","1257241","0.0-280.0","28","2823.9749999993946","How fast was the tone sequence relative to the clicks?","","","0"
"audio-multiple-response","292","1260982","0.0-281.0","28","464,1010,1544,2072","stimuli/reference_sequence.wav","74,74,74,74","",""
"audio-multiple-response","293","1264843","0.0-282.0","28","488,1004,1509","stimuli/sequence_5_463_16.wav","74,74,74","",""
"html-slider-response","294","1268700","0.0-283.0","28","3856.810000000987","How fast was the tone sequence relative to the clicks?","","","79"
"audio-multiple-response","295","1272436","0.0-284.0","28","424,987,1533,2032","stimuli/reference_sequence.wav","74,74,74,74","",""
"audio-multiple-response","296","1275878","0.0-285.0","28","163,505,981,1469","stimuli/sequence_6_358_13.wav","74,74,74,74","",""
"html-slider-response","297","1277835","0.0-286.0","28","1955.8350000006612","How fast was the tone sequence relative to the clicks?","","","100"
"audio-multiple-response","298","1281567","0.0-287.0","28","1016,1573,2096","stimuli/reference_sequence.wav","74,74,74","",""
"audio-multiple-response","299","1286182","0.0-288.0","28","435,975,1451,2072,2635","stimuli/sequence_2_652_13.wav","74,74,74,74,74","",""
"html-slider-response","300","1287948","0.0-289.0","28","1764.4700000018347","How fast was the tone sequence relative to the clicks?","","","8"
"html-button-response","301","1298602","0.0-290.0","28","9150.939999999711","<h3>You have completed Block 3 of 3</h3><p>Thank you for participating! When you are ready, press the button below to submit your data and complete the study.</p><p>You will receive credit on SONA once we verify that you have completed our study.</p><p>If you have any questions or would like to learn more about our lab's work, please contact us via the email address provided on SONA.</p><p><em>Have a great day!</em></p>","","0",""
