experiment,subject,pitch,ioi,tempo,tempo_range,loudness,tap_condition,key_press,tap_times,true_score,response,rt,error,tapped,tap_type,block,trial,test_correct,test_incorrect,test_skipped,extreme_responses,pearsonr,intercept,slope,residual,illusory_tempo,cooks
IT1,1,5,710,84.50704225352112,2,-16,True,,,31.580629700998873,24.0,3452.564999985043,-7.580629700998873,False,1,0,1,6,0,0,29.0,0.9229684649662334,51.15987519002085,33.642600026336545,-14.76636503589529,-26.231268310737804,0.03326126820017108
IT1,1,6,1000,60.0,1,-16,True,,,6.875176187496734,19.0,9667.070000024978,12.124823812503266,False,1,0,2,6,0,0,29.0,0.9229684649662334,51.15987519002085,33.642600026336545,-3.143251215415223,-6.270875404243566,0.004070705681068099
IT1,1,3,463,129.58963282937364,4,-16,True,,,62.42097125758927,50.0,4216.755000001285,-12.420971257589272,False,1,0,3,6,0,0,29.0,0.9229684649662334,51.15987519002085,33.642600026336545,-9.517350549174814,-17.806045458671125,0.012392890563626057
IT1,1,7,329,182.370820668693,5,-19,True,,,87.06720173383901,74.0,3767.7350000012666,-13.067201733839013,False,1,0,4,6,0,0,29.0,0.9229684649662334,51.15987519002085,33.642600026336545,-2.1006160305623354,-4.235634209182374,0.0028552514821984483
IT1,1,4,1000,60.0,1,-13,True,,,6.875176187496734,24.0,3347.1649999846704,17.124823812503266,False,1,0,5,6,0,0,29.0,0.9229684649662334,51.15987519002085,33.642600026336545,1.8567487845847772,3.8996220975523834,0.0010483675405955446
IT1,1,5,329,182.370820668693,5,-13,True,,,87.06720173383901,79.0,4055.6499999947846,-8.067201733839013,False,1,0,6,6,0,0,29.0,0.9229684649662334,51.15987519002085,33.642600026336545,2.8993839694376646,6.155706233153102,0.0010424028758808637
IT1,1,7,652,92.02453987730061,2,-13,True,,,37.727982709047225,50.0,763.1050000200048,12.272017290952775,False,1,0,7,6,0,0,29.0,0.9229684649662334,51.15987519002085,33.642600026336545,7.097376194695357,15.746130369214741,0.005111360206651751
IT1,1,4,358,167.5977653631285,5,-13,True,,,80.97360155738828,70.0,4475.894999981392,-10.973601557388278,False,1,0,8,6,0,0,29.0,0.9229684649662334,51.15987519002085,33.642600026336545,-2.0005249614274163,-4.037944959863899,0.0020255708686632203
IT1,1,5,918,65.359477124183,1,-16,True,,,13.046873249910696,28.0,2653.280000027735,14.953126750089304,False,1,0,9,6,0,0,29.0,0.9229684649662334,51.15987519002085,33.642600026336545,1.7041100694945932,3.5733861148230104,0.0006319964297133191
IT1,1,6,302,198.67549668874173,5,-13,True,,,93.24415345434716,72.0,2944.344999967143,-21.244153454347156,False,1,0,10,6,0,0,29.0,0.9229684649662334,51.15987519002085,33.642600026336545,-8.256790352863277,-15.643370499705094,0.0322442024313413
IT1,1,2,390,153.84615384615384,4,-16,True,,,74.79787473312055,61.0,2813.6499999673106,-13.797874733120551,False,1,0,11,6,0,0,29.0,0.9229684649662334,51.15987519002085,33.642600026336545,-6.845174813012292,-13.153926569528052,0.01090663250190199
IT1,1,4,774,77.51937984496124,2,-19,True,,,25.354902613380577,25.0,1978.0749999918044,-0.3549026133805775,False,1,0,12,6,0,0,29.0,0.9229684649662334,51.15987519002085,33.642600026336545,-9.577372110257862,-17.907626945685593,0.01803055098449691
IT1,1,2,358,167.5977653631285,5,-16,True,,,80.97360155738828,67.0,2741.6599999996834,-13.973601557388278,False,1,0,13,6,0,0,29.0,0.9229684649662334,51.15987519002085,33.642600026336545,-5.000524961427416,-9.78974808310141,0.00823271432769923
IT1,1,6,463,129.58963282937364,4,-19,True,,,62.42097125758927,50.0,1036.0299999592826,-12.420971257589272,False,1,0,14,6,0,0,29.0,0.9229684649662334,51.15987519002085,33.642600026336545,-9.517350549174814,-17.806045458671125,0.012392890563626057
IT1,1,2,550,109.0909090909091,3,-13,True,,,50.0,50.0,2058.1149999634363,0.0,False,1,0,15,6,0,0,29.0,0.9229684649662334,51.15987519002085,33.642600026336545,-1.1598751900208484,-2.3613930934538274,0.0003070204273605584
IT1,1,5,425,141.1764705882353,4,-19,True,,,68.5984388693479,62.0,3365.029999986291,-6.598438869347902,False,1,0,16,6,0,0,29.0,0.9229684649662334,51.15987519002085,33.642600026336545,-1.6738719899356909,-3.389931081031278,0.0008983056927367237
IT1,1,3,599,100.1669449081803,3,-16,True,,,43.84378078116181,37.0,2162.1950000408106,-6.843780781161811,False,1,0,17,6,0,0,29.0,0.9229684649662334,51.15987519002085,33.642600026336545,-10.017650772944464,-18.648933885485338,0.01136704252797511
IT1,1,7,1000,60.0,1,-19,True,,,6.875176187496734,23.0,2277.044999995269,16.124823812503266,False,1,0,18,6,0,0,29.0,0.9229684649662334,51.15987519002085,33.642600026336545,0.8567487845847772,1.7808530618407303,0.00017272233651603996
IT1,1,4,463,129.58963282937364,4,-16,True,,,62.42097125758927,62.0,2148.6300000105985,-0.42097125758927234,False,1,0,19,6,0,0,29.0,0.9229684649662334,51.15987519002085,33.642600026336545,2.4826494508251855,5.248145669370645,0.0003495087137058755
IT1,1,6,710,84.50704225352112,2,-13,True,,,31.580629700998873,28.0,2851.635000028182,-3.5806297009988732,False,1,0,20,6,0,0,29.0,0.9229684649662334,51.15987519002085,33.642600026336545,-10.76636503589529,-19.89422206805628,0.018058321124198484
IT1,1,7,425,141.1764705882353,4,-19,True,,,68.5984388693479,63.0,1792.284999974072,-5.598438869347902,False,1,0,21,6,0,0,29.0,0.9229684649662334,51.15987519002085,33.642600026336545,-0.6738719899356909,-1.3788021073026802,0.0003226944515000464
IT1,1,6,550,109.0909090909091,3,-19,True,,,50.0,50.0,455.66500001586974,0.0,False,1,0,22,6,0,0,29.0,0.9229684649662334,51.15987519002085,33.642600026336545,-1.1598751900208484,-2.3613930934538274,0.0003070204273605584
IT1,1,3,774,77.51937984496124,2,-19,True,,,25.354902613380577,21.0,2256.6149999620393,-4.3549026133805775,False,1,0,23,6,0,0,29.0,0.9229684649662334,51.15987519002085,33.642600026336545,-13.577372110257862,-24.401829706672743,0.03545147734123802
IT1,1,2,1000,60.0,1,-19,True,,,6.875176187496734,20.0,3593.429999949876,13.124823812503266,False,1,0,24,6,0,0,29.0,0.9229684649662334,51.15987519002085,33.642600026336545,-2.143251215415223,-4.3197189640712,0.001986125220799571
IT1,1,5,550,109.0909090909091,3,-19,True,,,50.0,50.0,559.8400000017136,0.0,False,1,0,25,6,0,0,29.0,0.9229684649662334,51.15987519002085,33.642600026336545,-1.1598751900208484,-2.3613930934538274,0.0003070204273605584
IT1,1,3,843,71.17437722419929,1,-13,True,,,19.194949373496982,22.0,2395.235000003595,2.805050626503018,False,1,0,26,6,0,0,29.0,0.9229684649662334,51.15987519002085,33.642600026336545,-8.432635249651067,-15.948439735928904,0.017708103701391666
IT1,1,4,504,119.04761904761905,3,-13,True,,,56.30039424560527,50.0,561.8150000227615,-6.300394245605268,False,1,0,27,6,0,0,29.0,0.9229684649662334,51.15987519002085,33.642600026336545,-5.39910806228346,-10.52753112563769,0.003769441319485519
IT1,1,3,329,182.370820668693,5,-19,True,,,87.06720173383901,74.0,2057.2599999723025,-13.067201733839013,False,1,0,28,6,0,0,29.0,0.9229684649662334,51.15987519002085,33.642600026336545,-2.1006160305623354,-4.235634209182374,0.0028552514821984483
IT1,1,7,599,100.1669449081803,3,-16,True,,,43.84378078116181,50.0,627.4099999573082,6.156219218838189,False,1,0,29,6,0,0,29.0,0.9229684649662334,51.15987519002085,33.642600026336545,2.9823492270555363,6.337319158220292,0.0005949311876177572
IT1,1,2,774,77.51937984496124,2,-19,True,,,25.354902613380577,27.0,2701.3799999840558,1.6450973866194225,False,1,0,30,6,0,0,29.0,0.9229684649662334,51.15987519002085,33.642600026336545,-7.577372110257862,-14.454223473458844,0.011507714778173682
IT1,1,2,425,141.1764705882353,4,-13,True,"[74, 74, 74, 74, 74]","[368, 736, 1056, 1440, 1883]",68.5984388693479,70.0,2819.4950000033714,1.401561130652098,True,2,1,31,6,0,0,29.0,0.9229684649662334,51.15987519002085,33.642600026336545,6.326128010064309,13.921434056027493,0.004368238706424105
IT1,1,5,504,119.04761904761905,3,-13,True,"[74, 74, 74, 74]","[293, 640, 1163, 1685]",56.30039424560527,50.0,1083.1449999823235,-6.300394245605268,True,2,1,32,6,0,0,29.0,0.9229684649662334,51.15987519002085,33.642600026336545,-5.39910806228346,-10.52753112563769,0.003769441319485519
IT1,1,3,1000,60.0,1,-19,True,"[74, 74, 74]","[576, 2133, 3173]",6.875176187496734,22.0,2109.295000031125,15.124823812503266,True,2,1,33,6,0,0,29.0,0.9229684649662334,51.15987519002085,33.642600026336545,-0.1432512154152228,-0.2947090580414032,3.7133548523542964e-05
IT1,1,7,710,84.50704225352112,2,-19,True,"[74, 74, 74, 74]","[347, 949, 1643, 2325]",31.580629700998873,50.0,1188.1050000083633,18.419370299001127,True,2,1,34,6,0,0,29.0,0.9229684649662334,51.15987519002085,33.642600026336545,11.23363496410471,26.042565279359618,0.01679455801707935
IT1,1,6,918,65.359477124183,1,-19,True,"[74, 74, 74, 74, 74]","[21, 731, 2016, 2859, 3787]",13.046873249910696,23.0,2934.064999979455,9.953126750089304,True,2,1,35,6,0,0,29.0,0.9229684649662334,51.15987519002085,33.642600026336545,-3.295889930505407,-6.5651768892302025,0.003674598088757818
IT1,1,3,652,92.02453987730061,2,-16,True,"[74, 74, 74, 74, 74]","[352, 1013, 1531, 2149, 2805]",37.727982709047225,50.0,1204.729999997653,12.272017290952775,True,2,1,36,6,0,0,29.0,0.9229684649662334,51.15987519002085,33.642600026336545,7.097376194695357,15.746130369214741,0.005111360206651751
IT1,1,6,390,153.84615384615384,4,-16,True,"[74, 74, 74, 74, 74, 74]","[341, 747, 917, 1077, 1280, 1483]",74.79787473312055,85.0,3616.120000020601,10.202125266879449,True,2,1,37,6,0,0,29.0,0.9229684649662334,51.15987519002085,33.642600026336545,17.154825186987708,42.396508767754995,0.048273242160880615
IT1,1,7,843,71.17437722419929,1,-13,True,"[74, 74, 74, 74]","[171, 677, 1845, 2731]",19.194949373496982,26.0,2495.5099999788217,6.805050626503018,True,2,1,38,6,0,0,29.0,0.9229684649662334,51.15987519002085,33.642600026336545,-4.432635249651067,-8.728055001559376,0.005204013322315493
IT1,1,5,463,129.58963282937364,4,-13,True,"[74, 74, 74, 74, 74]","[336, 725, 1136, 1568, 2043]",62.42097125758927,74.0,3059.659999969881,11.579028742410728,True,2,1,39,6,0,0,29.0,0.9229684649662334,51.15987519002085,33.642600026336545,14.482649450825186,34.76869714634821,0.022115754055715912
IT1,1,6,652,92.02453987730061,2,-16,True,"[74, 74, 74, 74, 74]","[368, 720, 1541, 2091, 2736]",37.727982709047225,50.0,1495.4849999630824,12.272017290952775,True,2,1,40,6,0,0,29.0,0.9229684649662334,51.15987519002085,33.642600026336545,7.097376194695357,15.746130369214741,0.005111360206651751
IT1,1,7,463,129.58963282937364,4,-16,True,"[74, 74, 74, 74, 74]","[341, 736, 1077, 1509, 1979]",62.42097125758927,67.0,2821.5450000134297,4.579028742410728,True,2,1,41,6,0,0,29.0,0.9229684649662334,51.15987519002085,33.642600026336545,7.4826494508251855,16.6685660266035,0.0053099687460796486
IT1,1,6,358,167.5977653631285,5,-19,True,"[74, 74, 74, 74, 74]","[213, 715, 907, 1205, 1515]",80.97360155738828,81.0,3263.570000010077,0.026398442611721862,True,2,1,42,6,0,0,29.0,0.9229684649662334,51.15987519002085,33.642600026336545,8.999475038572584,20.372210375187574,0.015046176653863742
IT1,1,4,652,92.02453987730061,2,-13,True,"[74, 74, 74, 74, 74]","[352, 997, 1536, 2139, 2789]",37.727982709047225,29.0,3978.899999987334,-8.727982709047225,True,2,1,43,6,0,0,29.0,0.9229684649662334,51.15987519002085,33.642600026336545,-13.902623805304643,-24.906737899140484,0.02433550717401256
IT1,1,7,358,167.5977653631285,5,-16,True,"[74, 74, 74, 74, 74, 74]","[357, 715, 901, 1120, 1365, 1589]",80.97360155738828,83.0,3257.8799999901094,2.026398442611722,True,2,1,44,6,0,0,29.0,0.9229684649662334,51.15987519002085,33.642600026336545,10.999475038572584,25.435942775690226,0.02345436099690873
IT1,1,4,843,71.17437722419929,1,-16,True,"[74, 74, 74, 74, 74, 74]","[363, 704, 1109, 1893, 2715, 3477]",19.194949373496982,23.0,2401.2999999686144,3.805050626503018,True,2,1,45,6,0,0,29.0,0.9229684649662334,51.15987519002085,33.642600026336545,-7.432635249651067,-14.198740868868267,0.013885926497681967
IT1,1,2,302,198.67549668874173,5,-13,True,"[74, 74, 74, 74, 74]","[373, 667, 853, 1056, 1312]",93.24415345434716,78.0,3215.550000022631,-15.244153454347156,True,2,1,46,6,0,0,29.0,0.9229684649662334,51.15987519002085,33.642600026336545,-2.256790352863277,-4.543279979338114,0.004119957481838401
IT1,1,3,504,119.04761904761905,3,-13,True,"[74, 74, 74, 74, 74]","[352, 693, 1184, 1701, 2197]",56.30039424560527,70.0,3130.6850000401028,13.699605754394732,True,2,1,47,6,0,0,29.0,0.9229684649662334,51.15987519002085,33.642600026336545,14.60089193771654,35.09741826879496,0.01964670874244134
IT1,1,4,302,198.67549668874173,5,-19,True,"[74, 74, 74, 74, 74]","[363, 699, 949, 1173, 1392]",93.24415345434716,100.0,3513.1099999998696,6.755846545652844,True,2,1,48,6,0,0,29.0,0.9229684649662334,51.15987519002085,33.642600026336545,19.743209647136723,50.19652982809363,0.12878941216751735
IT1,1,7,504,119.04761904761905,3,-19,True,"[74, 74, 74, 74, 74]","[480, 741, 1109, 1600, 2075]",56.30039424560527,50.0,552.350000012666,-6.300394245605268,True,2,1,49,6,0,0,29.0,0.9229684649662334,51.15987519002085,33.642600026336545,-5.39910806228346,-10.52753112563769,0.003769441319485519
IT1,1,5,652,92.02453987730061,2,-13,True,"[74, 74, 74, 74, 74]","[347, 672, 1552, 2149, 2784]",37.727982709047225,31.0,3972.829999984242,-6.727982709047225,True,2,1,50,6,0,0,29.0,0.9229684649662334,51.15987519002085,33.642600026336545,-11.902623805304643,-21.747768040779047,0.018045219701803717
IT1,1,3,302,198.67549668874173,5,-16,True,"[74, 74, 74, 74, 74]","[368, 688, 880, 1051, 1237]",93.24415345434716,81.0,3729.9300000304356,-12.244153454347156,True,2,1,51,6,0,0,29.0,0.9229684649662334,51.15987519002085,33.642600026336545,0.7432096471367231,1.5430378025325344,4.221086181766188e-05
IT1,1,4,599,100.1669449081803,3,-19,True,"[74, 74, 74, 74, 74]","[379, 629, 1339, 1936, 2432]",43.84378078116181,50.0,857.2549999807961,6.156219218838189,True,2,1,52,6,0,0,29.0,0.9229684649662334,51.15987519002085,33.642600026336545,2.9823492270555363,6.337319158220292,0.0005949311876177572
IT1,1,3,390,153.84615384615384,4,-13,True,"[74, 74, 74, 74, 74]","[341, 704, 965, 1349, 1701]",74.79787473312055,70.0,3032.1149999508634,-4.797874733120551,True,2,1,53,6,0,0,29.0,0.9229684649662334,51.15987519002085,33.642600026336545,2.1548251869877078,4.5396688984723,0.0002930989132315578
IT1,1,2,918,65.359477124183,1,-13,True,"[74, 74, 74, 74, 74, 74]","[384, 725, 1360, 2101, 2949, 3835]",13.046873249910696,21.0,3785.845000005793,7.953126750089304,True,2,1,54,6,0,0,29.0,0.9229684649662334,51.15987519002085,33.642600026336545,-5.295889930505407,-10.33705383814674,0.009010122342275542
IT1,1,4,425,141.1764705882353,4,-19,True,"[74, 74, 74, 74, 74]","[405, 784, 1024, 1339, 1760]",68.5984388693479,77.0,3460.7649999670684,8.401561130652098,True,2,1,55,6,0,0,29.0,0.9229684649662334,51.15987519002085,33.642600026336545,13.32612801006431,31.59537112398852,0.022544723112614566
IT1,1,2,599,100.1669449081803,3,-19,True,"[74, 74, 74, 74, 74]","[363, 949, 1429, 2000, 2576]",43.84378078116181,50.0,925.7249999791384,6.156219218838189,True,2,1,56,6,0,0,29.0,0.9229684649662334,51.15987519002085,33.642600026336545,2.9823492270555363,6.337319158220292,0.0005949311876177572
IT1,1,5,843,71.17437722419929,1,-13,True,"[74, 74, 74, 74, 74, 74]","[352, 688, 1157, 1883, 2741, 3531]",19.194949373496982,33.0,4106.704999983776,13.805050626503018,True,2,1,57,6,0,0,29.0,0.9229684649662334,51.15987519002085,33.642600026336545,2.5673647503489327,5.432007372475424,0.001189823455075671
IT1,1,2,710,84.50704225352112,2,-13,True,"[74, 74, 74, 74]","[384, 773, 1669, 2357]",31.580629700998873,50.0,1243.6700000544079,18.419370299001127,True,2,1,58,6,0,0,29.0,0.9229684649662334,51.15987519002085,33.642600026336545,11.23363496410471,26.042565279359618,0.01679455801707935
IT1,1,5,302,198.67549668874173,5,-19,True,"[74, 74, 74, 74, 74]","[352, 736, 928, 1136, 1376]",93.24415345434716,85.0,2791.650000028312,-8.244153454347156,True,2,1,59,6,0,0,29.0,0.9229684649662334,51.15987519002085,33.642600026336545,4.743209647136723,10.266014481697447,0.0049593829215107505
IT1,1,6,504,119.04761904761905,3,-16,True,"[74, 74, 74, 74]","[549, 1168, 1648, 2107]",56.30039424560527,50.0,599.4350000401028,-6.300394245605268,True,2,1,60,6,0,0,29.0,0.9229684649662334,51.15987519002085,33.642600026336545,-5.39910806228346,-10.52753112563769,0.003769441319485519
IT1,1,5,390,153.84615384615384,4,-16,True,"[74, 74, 74, 74, 74]","[341, 741, 992, 1333, 1701]",74.79787473312055,64.0,2563.854999956675,-10.797874733120551,True,2,2,61,6,0,0,29.0,0.9229684649662334,51.15987519002085,33.642600026336545,-3.8451748130122922,-7.616623371899692,0.004085319677573523
IT1,1,4,918,65.359477124183,1,-19,True,"[74, 74, 74, 74, 74, 74]","[357, 683, 1253, 1904, 2837, 3621]",13.046873249910696,37.0,3981.339999998454,23.953126750089304,True,2,2,62,6,0,0,29.0,0.9229684649662334,51.15987519002085,33.642600026336545,10.704110069494593,24.674922693029153,0.03222166575253254
IT1,1,6,329,182.370820668693,5,-16,True,"[74, 74, 74, 74, 74]","[357, 693, 901, 1125, 1403]",87.06720173383901,73.0,4858.570000040345,-14.067201733839013,True,2,2,63,6,0,0,29.0,0.9229684649662334,51.15987519002085,33.642600026336545,-3.1006160305623354,-6.188505344475275,0.00498135526721722
IT1,1,2,843,71.17437722419929,1,-16,True,"[74, 74, 74, 74, 74, 74]","[357, 736, 1147, 1680, 2629, 3387]",19.194949373496982,50.0,1536.7649999679998,30.805050626503018,True,2,2,64,6,0,0,29.0,0.9229684649662334,51.15987519002085,33.642600026336545,19.567364750348933,49.65335567676077,0.08611810345056518
IT1,1,7,302,198.67549668874173,5,-13,True,"[74, 74, 74, 74]","[635, 864, 1115, 1392]",93.24415345434716,73.0,2283.3899999968708,-20.244153454347156,True,2,2,65,6,0,0,29.0,0.9229684649662334,51.15987519002085,33.642600026336545,-7.256790352863277,-13.887321015293422,0.025707869781474022
IT1,1,5,599,100.1669449081803,3,-16,True,"[74, 74, 74, 74, 74]","[368, 800, 1376, 1925, 2555]",43.84378078116181,50.0,545.990000013262,6.156219218838189,True,2,2,66,6,0,0,29.0,0.9229684649662334,51.15987519002085,33.642600026336545,2.9823492270555363,6.337319158220292,0.0005949311876177572
IT1,1,4,710,84.50704225352112,2,-16,True,"[74, 74, 74, 74, 74]","[341, 885, 1611, 2272, 2987]",31.580629700998873,50.0,966.199999966193,18.419370299001127,True,2,2,67,6,0,0,29.0,0.9229684649662334,51.15987519002085,33.642600026336545,11.23363496410471,26.042565279359618,0.01679455801707935
IT1,1,2,463,129.58963282937364,4,-19,True,"[74, 74, 74, 74, 74]","[293, 741, 1099, 1547, 1947]",62.42097125758927,62.0,1745.9749999688938,-0.42097125758927234,True,2,2,68,6,0,0,29.0,0.9229684649662334,51.15987519002085,33.642600026336545,2.4826494508251855,5.248145669370645,0.0003495087137058755
IT1,1,6,843,71.17437722419929,1,-13,True,"[74, 74, 74, 74, 74]","[363, 725, 1957, 2720, 3456]",19.194949373496982,28.0,2033.5750000085682,8.805050626503018,True,2,2,69,6,0,0,29.0,0.9229684649662334,51.15987519002085,33.642600026336545,-2.4326352496510673,-4.888491835734435,0.001736586568540027
IT1,1,3,425,141.1764705882353,4,-19,True,"[74, 74, 74, 74, 74]","[373, 757, 1056, 1435, 1835]",68.5984388693479,72.0,2506.969999987632,3.401561130652098,True,2,2,70,6,0,0,29.0,0.9229684649662334,51.15987519002085,33.642600026336545,8.32612801006431,18.71379979346137,0.008119587296839093
IT1,1,7,918,65.359477124183,1,-16,True,"[74, 74, 74, 74, 74, 74]","[352, 715, 1205, 1888, 2805, 3520]",13.046873249910696,29.0,2793.665000004694,15.953126750089304,True,2,2,71,6,0,0,29.0,0.9229684649662334,51.15987519002085,33.642600026336545,2.704110069494593,5.7294702585721495,0.0017885404935758156
IT1,1,6,425,141.1764705882353,4,-13,True,"[74, 74, 74, 74]","[363, 752, 1083, 1493]",68.5984388693479,64.0,16856.465000018943,-4.598438869347902,True,2,2,72,6,0,0,29.0,0.9229684649662334,51.15987519002085,33.642600026336545,0.32612801006430914,0.6741924793400689,3.546974396268318e-05
IT1,1,5,358,167.5977653631285,5,-16,True,"[74, 74, 74, 74, 74]","[16, 613, 923, 1264, 1557]",80.97360155738828,72.0,52948.94500001101,-8.973601557388278,True,2,2,73,6,0,0,29.0,0.9229684649662334,51.15987519002085,33.642600026336545,-0.000524961427416315,-0.0010815857431282438,0.00021086041123223758
IT1,1,4,390,153.84615384615384,4,-13,True,"[74, 74, 74, 74, 74]","[373, 688, 1003, 1349, 1717]",74.79787473312055,69.0,3739.515000022948,-5.797874733120551,True,2,2,74,6,0,0,29.0,0.9229684649662334,51.15987519002085,33.642600026336545,1.1548251869877078,2.407847733062586,1.3061180963092065e-05
IT1,1,2,329,182.370820668693,5,-19,True,"[74, 74, 74, 74, 74]","[368, 715, 955, 1205, 1493]",87.06720173383901,72.0,1848.5750000108965,-15.067201733839013,True,2,2,75,6,0,0,29.0,0.9229684649662334,51.15987519002085,33.642600026336545,-4.100616030562335,-8.101552630473424,0.007695303740154411
IT1,1,3,710,84.50704225352112,2,-13,True,"[74, 74, 74, 74]","[571, 1573, 2267, 2917]",31.580629700998873,39.0,3704.5949999592267,7.419370299001127,True,2,2,76,6,0,0,29.0,0.9229684649662334,51.15987519002085,33.642600026336545,0.2336349641047093,0.48252457139450566,5.729879907551662e-06
IT1,1,2,504,119.04761904761905,3,-16,True,"[74, 74, 74, 74, 74]","[363, 779, 1264, 1728, 2192]",56.30039424560527,50.0,762.4950000317767,-6.300394245605268,True,2,2,77,6,0,0,29.0,0.9229684649662334,51.15987519002085,33.642600026336545,-5.39910806228346,-10.52753112563769,0.003769441319485519
IT1,1,7,774,77.51937984496124,2,-16,True,"[74, 74, 74, 74, 74]","[379, 752, 1776, 2485, 3221]",25.354902613380577,35.0,1571.2350000394508,9.645097386619423,True,2,2,78,6,0,0,29.0,0.9229684649662334,51.15987519002085,33.642600026336545,0.42262788974213805,0.8745532260619501,5.497665295394216e-07
IT1,1,3,550,109.0909090909091,3,-19,True,"[74, 74, 74, 74, 74]","[368, 736, 1328, 1845, 2389]",50.0,50.0,567.5099999643862,0.0,True,2,2,79,6,0,0,29.0,0.9229684649662334,51.15987519002085,33.642600026336545,-1.1598751900208484,-2.3613930934538274,0.0003070204273605584
IT1,1,5,1000,60.0,1,-19,True,"[74, 74, 74, 74, 74]","[384, 763, 1349, 2059, 3099]",6.875176187496734,25.0,2036.9100000243634,18.124823812503266,True,2,2,80,6,0,0,29.0,0.9229684649662334,51.15987519002085,33.642600026336545,2.856748784584777,6.06249748619432,0.002664069160762056
IT1,1,6,774,77.51937984496124,2,-19,True,"[74, 74, 74, 74]","[395, 768, 1616, 2459]",25.354902613380577,50.0,447.87999999243766,24.645097386619423,True,2,2,81,6,0,0,29.0,0.9229684649662334,51.15987519002085,33.642600026336545,15.422627889742138,37.40414862848499,0.041318890816057184
IT1,1,7,390,153.84615384615384,4,-13,True,"[74, 74, 74, 74]","[667, 1003, 1349, 1664]",74.79787473312055,65.0,2250.5499999970198,-9.797874733120551,True,2,2,82,6,0,0,29.0,0.9229684649662334,51.15987519002085,33.642600026336545,-2.8451748130122922,-5.693481327735656,0.0025412083571910694
IT1,1,4,329,182.370820668693,5,-16,True,"[74, 74, 74, 74, 74]","[53, 624, 896, 1179, 1472]",87.06720173383901,78.0,2479.425000026822,-9.067201733839013,True,2,2,83,6,0,0,29.0,0.9229684649662334,51.15987519002085,33.642600026336545,1.8993839694376646,3.9909300887343164,0.00022928322130754368
IT1,1,7,550,109.0909090909091,3,-13,True,"[74, 74, 74, 74, 74]","[96, 571, 1221, 1813, 2336]",50.0,50.0,550.9999999776483,0.0,True,2,2,84,6,0,0,29.0,0.9229684649662334,51.15987519002085,33.642600026336545,-1.1598751900208484,-2.3613930934538274,0.0003070204273605584
IT1,1,3,918,65.359477124183,1,-16,True,"[74, 74, 74, 74, 74]","[43, 635, 1984, 2816, 3781]",13.046873249910696,26.0,2292.9150000563823,12.953126750089304,True,2,2,85,6,0,0,29.0,0.9229684649662334,51.15987519002085,33.642600026336545,-0.2958899305054068,-0.6077751974276377,8.397269765972252e-05
IT1,1,6,599,100.1669449081803,3,-13,True,"[74, 74, 74, 74, 74]","[336, 811, 1387, 1899, 2555]",43.84378078116181,50.0,663.4249999769963,6.156219218838189,True,2,2,86,6,0,0,29.0,0.9229684649662334,51.15987519002085,33.642600026336545,2.9823492270555363,6.337319158220292,0.0005949311876177572
IT1,1,5,774,77.51937984496124,2,-19,True,"[74, 74, 74, 74, 74]","[16, 613, 1147, 1749, 2443]",25.354902613380577,50.0,8067.049999954179,24.645097386619423,True,2,2,87,6,0,0,29.0,0.9229684649662334,51.15987519002085,33.642600026336545,15.422627889742138,37.40414862848499,0.041318890816057184
IT1,1,3,358,167.5977653631285,5,-13,True,"[74, 74, 74, 74, 74]","[64, 592, 912, 1237, 1557]",80.97360155738828,71.0,2041.7349999770522,-9.973601557388278,True,2,2,88,6,0,0,29.0,0.9229684649662334,51.15987519002085,33.642600026336545,-1.0005249614274163,-2.0403056720622588,0.0008858771217550932
IT1,1,2,652,92.02453987730061,2,-16,True,"[74, 74, 74, 74, 74]","[43, 603, 1381, 2075, 2699]",37.727982709047225,50.0,1539.4450000021607,12.272017290952775,True,2,2,89,6,0,0,29.0,0.9229684649662334,51.15987519002085,33.642600026336545,7.097376194695357,15.746130369214741,0.005111360206651751
IT1,1,4,550,109.0909090909091,3,-16,True,"[74, 74, 74, 74]","[608, 1200, 1728, 2165]",50.0,50.0,494.38999994890764,0.0,True,2,2,90,6,0,0,29.0,0.9229684649662334,51.15987519002085,33.642600026336545,-1.1598751900208484,-2.3613930934538274,0.0003070204273605584
IT1,2,3,550,109.0909090909091,3,-16,True,"[74, 74, 74, 74]","[772, 1329, 1852, 2397]",50.0,50.0,1337.5749999831896,0.0,True,2,0,1,6,0,0,31.0,0.9028819725263836,48.042562131790575,53.3671528329832,1.957437868209425,2.5749678104558327,0.00013605910498846042
IT1,2,4,652,92.02453987730061,2,-16,True,"[74, 74, 74, 74]","[401, 755, 1503, 2194]",37.727982709047225,24.0,5710.5000000156,-13.727982709047225,True,2,0,2,6,0,0,31.0,0.9028819725263836,48.042562131790575,53.3671528329832,-10.944109685084783,-13.250461802943219,0.004924299547147329
IT1,2,2,843,71.17437722419929,1,-19,True,"[74, 74, 74, 74, 74]","[354, 755, 1933, 2705, 3541]",19.194949373496982,0.0,6199.83999998658,-19.194949373496982,True,2,0,3,6,0,0,31.0,0.9028819725263836,48.042562131790575,53.3671528329832,-15.163005235543146,-17.876112862962696,0.01982452350737284
IT1,2,3,652,92.02453987730061,2,-19,True,"[74, 74, 74, 74]","[418, 877, 1573, 2194]",37.727982709047225,37.0,2412.2499999939464,-0.7279827090472253,True,2,0,4,6,0,0,31.0,0.9028819725263836,48.042562131790575,53.3671528329832,2.0558903149152172,2.7062171214047623,0.0001240463834245968
IT1,2,7,358,167.5977653631285,5,-13,True,"[74, 74, 74, 74]","[395, 789, 1115, 1498]",80.97360155738828,75.0,8574.280000000726,-5.973601557388278,True,2,0,5,6,0,0,31.0,0.9028819725263836,48.042562131790575,53.3671528329832,-6.102020693811909,-7.619541157143697,0.0019725139509683227
IT1,2,5,652,92.02453987730061,2,-13,True,"[74, 74, 74, 74, 74]","[453, 1051, 1556, 2148, 2757]",37.727982709047225,35.0,1894.750000006752,-2.7279827090472253,True,2,0,6,6,0,0,31.0,0.9028819725263836,48.042562131790575,53.3671528329832,0.05589031491521723,0.07261822426871599,1.8817474018006846e-06
IT1,2,3,843,71.17437722419929,1,-19,True,"[74, 74, 74, 74]","[401, 842, 1811, 2786]",19.194949373496982,0.0,5929.249999986496,-19.194949373496982,True,2,0,7,6,0,0,31.0,0.9028819725263836,48.042562131790575,53.3671528329832,-15.163005235543146,-17.876112862962696,0.01982452350737284
IT1,2,6,599,100.1669449081803,3,-19,True,"[74, 74, 74, 74, 74]","[145, 993, 1416, 1985, 2583]",43.84378078116181,50.0,740.0149999884889,6.156219218838189,True,2,0,8,6,0,0,31.0,0.9028819725263836,48.042562131790575,53.3671528329832,8.528235706711143,11.713464942660083,0.002412310636504775
IT1,2,7,390,153.84615384615384,4,-16,True,"[74, 74, 74, 74]","[401, 964, 1242, 1649]",74.79787473312055,100.0,2398.285000002943,25.20212526687945,True,2,0,9,6,0,0,31.0,0.9028819725263836,48.042562131790575,53.3671528329832,25.48959845189708,39.245152098690966,0.04223825879519105
IT1,2,6,918,65.359477124183,1,-16,True,"[74, 74, 74]","[656, 1324, 2049]",13.046873249910696,22.0,4352.719999995315,8.953126750089304,True,2,0,10,6,0,0,31.0,0.9028819725263836,48.042562131790575,53.3671528329832,13.399101126781737,19.009268542828263,0.014992503377159783
IT1,2,4,463,129.58963282937364,4,-16,True,"[74, 74, 74, 74]","[406, 755, 1062, 1556]",62.42097125758927,64.0,1759.0750000090338,1.5790287424107277,True,2,0,11,6,0,0,31.0,0.9028819725263836,48.042562131790575,53.3671528329832,2.7000004394522605,3.5690489966246517,0.00039690076007773984
IT1,2,7,1000,60.0,1,-19,True,"[74, 74, 74, 74, 74]","[395, 778, 1440, 2357, 3384]",6.875176187496734,0.0,2661.790000012843,-6.875176187496734,True,2,0,12,6,0,0,31.0,0.9028819725263836,48.042562131790575,53.3671528329832,-2.0135808658438705,-2.5813912965156525,0.0012934541326453917
IT1,2,4,302,198.67549668874173,5,-19,True,"[74, 74, 74, 74]","[366, 760, 1027, 1364]",93.24415345434716,100.0,2103.5350000020117,6.755846545652844,True,2,0,13,6,0,0,31.0,0.9028819725263836,48.042562131790575,53.3671528329832,5.801090937586963,7.825733163601714,0.00645139261523744
IT1,2,6,774,77.51937984496124,2,-16,True,"[74, 74, 74, 74]","[406, 1178, 1776, 2577]",25.354902613380577,22.0,2097.765000013169,-3.3549026133805775,True,2,0,14,6,0,0,31.0,0.9028819725263836,48.042562131790575,53.3671528329832,0.262211444518897,0.3411479870904951,9.421316650173574e-06
IT1,2,3,390,153.84615384615384,4,-13,True,"[74, 74, 74, 74]","[360, 755, 1202, 1683]",74.79787473312055,88.0,3866.65000001085,13.202125266879449,True,2,0,15,6,0,0,31.0,0.9028819725263836,48.042562131790575,53.3671528329832,13.48959845189708,19.149234757302203,0.01253107951853863
IT1,2,2,302,198.67549668874173,5,-16,True,"[74, 74, 74, 74]","[372, 708, 998, 1353]",93.24415345434716,100.0,1823.9249999751337,6.755846545652844,True,2,0,16,6,0,0,31.0,0.9028819725263836,48.042562131790575,53.3671528329832,5.801090937586963,7.825733163601714,0.00645139261523744
IT1,2,4,599,100.1669449081803,3,-19,True,"[74, 74, 74, 74, 74]","[377, 627, 1300, 1881, 2456]",43.84378078116181,43.0,1821.2749999947846,-0.8437807811618114,True,2,0,17,6,0,0,31.0,0.9028819725263836,48.042562131790575,53.3671528329832,1.5282357067111434,2.0047447565861165,7.032055754280063e-05
IT1,2,2,390,153.84615384615384,4,-19,True,"[74, 74, 74, 74]","[302, 772, 1271, 1689]",74.79787473312055,77.0,2020.2200000057928,2.202125266879449,True,2,0,18,6,0,0,31.0,0.9028819725263836,48.042562131790575,53.3671528329832,2.4895984518970806,3.2864061632200308,0.0006845141874794676
IT1,2,5,302,198.67549668874173,5,-13,True,"[74, 74, 74, 74]","[406, 726, 1022, 1347]",93.24415345434716,100.0,3338.6349999927916,6.755846545652844,True,2,0,19,6,0,0,31.0,0.9028819725263836,48.042562131790575,53.3671528329832,5.801090937586963,7.825733163601714,0.00645139261523744
IT1,2,7,504,119.04761904761905,3,-13,True,"[74, 74, 74, 74, 74]","[389, 656, 1149, 1672, 2188]",56.30039424560527,50.0,2479.8899999877904,-6.300394245605268,True,2,0,20,6,0,0,31.0,0.9028819725263836,48.042562131790575,53.3671528329832,-4.767244184055862,-6.004029497327747,0.0006768265684427363
IT1,2,5,1000,60.0,1,-13,True,"[74, 74, 74, 74, 74]","[372, 749, 1422, 2316, 3117]",6.875176187496734,0.0,2715.599999995902,-6.875176187496734,True,2,0,21,6,0,0,31.0,0.9028819725263836,48.042562131790575,53.3671528329832,-2.0135808658438705,-2.5813912965156525,0.0012934541326453917
IT1,2,6,358,167.5977653631285,5,-16,True,,,80.97360155738828,93.0,1964.6799999754876,12.026398442611722,False,1,0,22,6,0,0,31.0,0.9028819725263836,48.042562131790575,53.3671528329832,11.897979306188091,16.71142045144217,0.012996071775289771
IT1,2,5,550,109.0909090909091,3,-13,True,"[74, 74, 74, 74]","[145, 697, 1306, 1881]",50.0,50.0,5439.489999989746,0.0,True,2,0,23,6,0,0,31.0,0.9028819725263836,48.042562131790575,53.3671528329832,1.957437868209425,2.5749678104558327,0.00013605910498846031
IT1,2,2,652,92.02453987730061,2,-13,True,"[74, 74, 74, 74, 74]","[430, 946, 1474, 1985, 2525]",37.727982709047225,0.0,2851.0499999974854,-37.727982709047225,True,2,0,24,6,0,0,31.0,0.9028819725263836,48.042562131790575,53.3671528329832,-34.94410968508478,-36.483067125328205,0.04852587943338624
IT1,2,5,390,153.84615384615384,4,-19,True,"[74, 74, 74]","[505, 975, 1428]",74.79787473312055,75.0,2613.2499999948777,0.20212526687944887,True,2,0,25,6,0,0,31.0,0.9028819725263836,48.042562131790575,53.3671528329832,0.4895984518970806,0.637930024340676,0.00011166202248851676
IT1,2,7,652,92.02453987730061,2,-16,True,"[74, 74, 74, 74, 74]","[499, 1033, 1538, 2043, 2560]",37.727982709047225,11.0,3648.8599999865983,-26.727982709047225,True,2,0,26,6,0,0,31.0,0.9028819725263836,48.042562131790575,53.3671528329832,-23.944109685084783,-26.728073642250365,0.022947498687655835
IT1,2,3,358,167.5977653631285,5,-13,True,"[74, 74, 74]","[35, 598, 1132]",80.97360155738828,92.0,2534.4850000110455,11.026398442611722,True,2,0,27,6,0,0,31.0,0.9028819725263836,48.042562131790575,53.3671528329832,10.897979306188091,15.205342442951277,0.011066950680900252
IT1,2,4,918,65.359477124183,1,-19,True,"[74, 74, 74, 74, 74, 74, 74]","[110, 702, 1265, 1771, 2334, 2908, 3442]",13.046873249910696,0.0,4291.280000004917,-13.046873249910696,True,2,0,28,6,0,0,31.0,0.9028819725263836,48.042562131790575,53.3671528329832,-8.600898873218263,-10.569717210201363,0.009105038822075204
IT1,2,6,463,129.58963282937364,4,-16,True,"[74, 74, 74]","[569, 1120, 1753]",62.42097125758927,78.0,3239.2950000066776,15.579028742410728,True,2,0,29,6,0,0,31.0,0.9028819725263836,48.042562131790575,53.3671528329832,16.70000043945226,24.22250593477487,0.011557001651209296
IT1,2,2,550,109.0909090909091,3,-16,True,"[74, 74, 74, 74]","[470, 958, 1457, 1939]",50.0,22.0,2579.5750000106636,-28.0,True,2,0,30,6,0,0,31.0,0.9028819725263836,48.042562131790575,53.3671528329832,-26.042562131790575,-28.69815065516826,0.02157740659734729
IT1,2,2,1000,60.0,1,-16,True,"[74, 74, 74, 74, 74, 74, 74, 74]","[70, 691, 1353, 1834, 2363, 2932, 3408, 3878]",6.875176187496734,0.0,2978.964999987511,-6.875176187496734,True,2,1,31,6,0,0,31.0,0.9028819725263836,48.042562131790575,53.3671528329832,-2.0135808658438705,-2.5813912965156525,0.0012934541326453917
IT1,2,4,425,141.1764705882353,4,-19,True,"[74, 74, 74]","[134, 731, 1324]",68.5984388693479,80.0,2844.115000014426,11.401561130652098,True,2,1,32,6,0,0,31.0,0.9028819725263836,48.042562131790575,53.3671528329832,12.106523276301743,17.027976577674572,0.007852499079511275
IT1,2,3,302,198.67549668874173,5,-16,True,"[74, 74, 74]","[93, 656, 1178]",93.24415345434716,100.0,2292.604999995092,6.755846545652844,True,2,1,33,6,0,0,31.0,0.9028819725263836,48.042562131790575,53.3671528329832,5.801090937586963,7.825733163601714,0.00645139261523744
IT1,2,6,652,92.02453987730061,2,-13,True,"[74, 74, 74, 74, 74]","[546, 1068, 1573, 2154, 2670]",37.727982709047225,23.0,2342.210000002524,-14.727982709047225,True,2,1,34,6,0,0,31.0,0.9028819725263836,48.042562131790575,53.3671528329832,-11.944109685084783,-14.369902995758489,0.005841245777714757
IT1,2,5,463,129.58963282937364,4,-16,True,"[74, 74, 74, 74]","[116, 673, 1358, 1968]",62.42097125758927,24.0,2518.1100000045262,-38.42097125758927,True,2,1,35,6,0,0,31.0,0.9028819725263836,48.042562131790575,53.3671528329832,-37.29999956054774,-38.397183764973484,0.0530424312345668
IT1,2,7,843,71.17437722419929,1,-16,True,"[74, 74, 74, 74, 74, 74, 74]","[441, 929, 1474, 1974, 2479, 2943, 3367]",19.194949373496982,78.0,2282.9149999888614,58.80505062650302,True,2,1,36,6,0,0,31.0,0.9028819725263836,48.042562131790575,53.3671528329832,62.836994764456854,126.17618251191189,0.29728011223601475
IT1,2,2,329,182.370820668693,5,-13,True,"[74, 74, 74]","[64, 673, 1225]",87.06720173383901,89.0,2033.9399999938905,1.9327982661609866,True,2,1,37,6,0,0,31.0,0.9028819725263836,48.042562131790575,53.3671528329832,1.3940174677932902,1.8270785428037368,0.0006813696239252717
IT1,2,4,774,77.51937984496124,2,-13,True,"[74, 74, 74, 74, 74, 74]","[517, 975, 1498, 2090, 2537, 3088]",25.354902613380577,0.0,2351.2100000225473,-25.354902613380577,True,2,1,38,6,0,0,31.0,0.9028819725263836,48.042562131790575,53.3671528329832,-21.737788555481103,-24.597996863503113,0.030476289785988608
IT1,2,2,599,100.1669449081803,3,-19,True,"[74, 74, 74, 74, 74]","[23, 639, 1277, 1846, 2421]",43.84378078116181,34.0,2819.00499999756,-9.843780781161811,True,2,1,39,6,0,0,31.0,0.9028819725263836,48.042562131790575,53.3671528329832,-7.471764293288857,-9.248512217467281,0.0019343125995923396
IT1,2,3,774,77.51937984496124,2,-13,True,"[74, 74, 74, 74, 74, 74]","[75, 685, 1248, 1771, 2287, 2810]",25.354902613380577,26.0,2374.2549999733455,0.6450973866194225,True,2,1,40,6,0,0,31.0,0.9028819725263836,48.042562131790575,53.3671528329832,4.262211444518897,5.691973590466681,0.0007903600948313777
IT1,2,2,425,141.1764705882353,4,-13,True,"[74, 74, 74, 74]","[99, 726, 1254, 1887]",68.5984388693479,72.0,1949.590000003809,3.401561130652098,True,2,1,41,6,0,0,31.0,0.9028819725263836,48.042562131790575,53.3671528329832,4.106523276301743,5.4784676220044775,0.0010988609079567583
IT1,2,3,599,100.1669449081803,3,-13,True,"[74, 74, 74, 74]","[35, 668, 1347, 1950]",43.84378078116181,39.0,3506.519999995362,-4.843780781161811,True,2,1,42,6,0,0,31.0,0.9028819725263836,48.042562131790575,53.3671528329832,-2.4717642932888566,-3.159408975884489,0.0002216611674020296
IT1,2,5,710,84.50704225352112,2,-19,True,"[74, 74, 74, 74, 74, 74]","[6, 592, 1126, 1672, 2264, 2937]",31.580629700998873,39.0,2064.234999998007,7.419370299001127,True,2,1,43,6,0,0,31.0,0.9028819725263836,48.042562131790575,53.3671528329832,10.617224864891515,14.786009394193682,0.004947364303873436
IT1,2,6,1000,60.0,1,-19,True,"[74, 74, 74, 74, 74, 74, 74, 74]","[0, 546, 1051, 1596, 2113, 2653, 3158, 3692]",6.875176187496734,0.0,1607.799999997951,-6.875176187496734,True,2,1,44,6,0,0,31.0,0.9028819725263836,48.042562131790575,53.3671528329832,-2.0135808658438705,-2.5813912965156525,0.0012934541326453917
IT1,2,7,302,198.67549668874173,5,-19,True,"[74, 74]","[470, 958]",93.24415345434716,100.0,2904.655000020284,6.755846545652844,True,2,1,45,6,0,0,31.0,0.9028819725263836,48.042562131790575,53.3671528329832,5.801090937586963,7.825733163601714,0.00645139261523744
IT1,2,4,1000,60.0,1,-16,True,"[74, 74, 74, 74, 74, 74, 74]","[522, 1097, 1672, 2212, 2734, 3222, 3698]",6.875176187496734,0.0,2778.9449999982025,-6.875176187496734,True,2,1,46,6,0,0,31.0,0.9028819725263836,48.042562131790575,53.3671528329832,-2.0135808658438705,-2.5813912965156525,0.0012934541326453917
IT1,2,6,302,198.67549668874173,5,-13,True,"[74, 74]","[627, 1190]",93.24415345434716,87.0,3631.6550000046846,-6.244153454347156,True,2,1,47,6,0,0,31.0,0.9028819725263836,48.042562131790575,53.3671528329832,-7.198909062413037,-8.926325787612818,0.004098223805382892
IT1,2,7,550,109.0909090909091,3,-16,True,"[74, 74, 74, 74]","[41, 633, 1248, 1852]",50.0,50.0,7288.870000018505,0.0,True,2,1,48,6,0,0,31.0,0.9028819725263836,48.042562131790575,53.3671528329832,1.957437868209425,2.5749678104558327,0.00013605910498846031
IT1,2,3,463,129.58963282937364,4,-19,True,"[74, 74, 74, 74]","[35, 650, 1219, 1712]",62.42097125758927,34.0,6749.65000001248,-28.420971257589272,True,2,1,49,6,0,0,31.0,0.9028819725263836,48.042562131790575,53.3671528329832,-27.29999956054774,-29.85319057877688,0.02814055791864187
IT1,2,7,710,84.50704225352112,2,-19,True,"[74, 74, 74, 74, 74, 74]","[104, 697, 1213, 1689, 2188, 3024]",31.580629700998873,36.0,2368.1849999993574,4.419370299001127,True,2,1,50,6,0,0,31.0,0.9028819725263836,48.042562131790575,53.3671528329832,7.617224864891515,10.399409640020385,0.0024555927675360785
IT1,2,6,425,141.1764705882353,4,-19,True,"[74, 74, 74]","[81, 708, 1277]",68.5984388693479,62.0,2360.275000013644,-6.598438869347902,True,2,1,51,6,0,0,31.0,0.9028819725263836,48.042562131790575,53.3671528329832,-5.893476723698257,-7.368977843992751,0.0013091733006652855
IT1,2,4,358,167.5977653631285,5,-13,True,"[74, 74]","[586, 1196]",80.97360155738828,73.0,2516.3250000041444,-7.973601557388278,True,2,1,52,6,0,0,31.0,0.9028819725263836,48.042562131790575,53.3671528329832,-8.102020693811909,-9.98836634946758,0.003845794699205793
IT1,2,7,463,129.58963282937364,4,-13,True,"[74, 74, 74, 74]","[70, 627, 1149, 1683]",62.42097125758927,46.0,3337.085000006482,-16.420971257589272,True,2,1,53,6,0,0,31.0,0.9028819725263836,48.042562131790575,53.3671528329832,-15.29999956054774,-18.02210759479943,0.008589941753158291
IT1,2,6,550,109.0909090909091,3,-16,True,"[74, 74, 74]","[679, 1306, 1869]",50.0,50.0,1134.5150000124704,0.0,True,2,1,54,6,0,0,31.0,0.9028819725263836,48.042562131790575,53.3671528329832,1.957437868209425,2.5749678104558327,0.00013605910498846031
IT1,2,5,918,65.359477124183,1,-19,True,"[74, 74, 74, 74, 74, 74]","[639, 1202, 1718, 2165, 2670, 3181]",13.046873249910696,22.0,1598.9600000029895,8.953126750089304,True,2,1,55,6,0,0,31.0,0.9028819725263836,48.042562131790575,53.3671528329832,13.399101126781737,19.009268542828263,0.014992503377159783
IT1,2,4,504,119.04761904761905,3,-16,True,"[74, 74, 74, 74]","[35, 685, 1231, 1724]",56.30039424560527,53.0,2877.455000008922,-3.3003942456052684,True,2,1,56,6,0,0,31.0,0.9028819725263836,48.042562131790575,53.3671528329832,-1.767244184055862,-2.269202450292197,7.326154576581983e-05
IT1,2,3,918,65.359477124183,1,-16,True,"[74, 74, 74, 74, 74, 74]","[551, 1103, 1643, 2148, 2664, 3123]",13.046873249910696,22.0,1719.360000017332,8.953126750089304,True,2,1,57,6,0,0,31.0,0.9028819725263836,48.042562131790575,53.3671528329832,13.399101126781737,19.009268542828263,0.014992503377159783
IT1,2,5,329,182.370820668693,5,-19,True,"[74, 74, 74]","[35, 627, 1202]",87.06720173383901,100.0,2265.1349999941885,12.932798266160987,True,2,1,58,6,0,0,31.0,0.9028819725263836,48.042562131790575,53.3671528329832,12.39401746779329,17.46578215504956,0.01822174059189705
IT1,2,2,710,84.50704225352112,2,-16,True,"[74, 74, 74, 74, 74, 74]","[6, 534, 1080, 1602, 2171, 2752]",31.580629700998873,21.0,1742.2150000056718,-10.580629700998873,True,2,1,59,6,0,0,31.0,0.9028819725263836,48.042562131790575,53.3671528329832,-7.382775135108485,-9.143559597170544,0.0029554321402760664
IT1,2,5,599,100.1669449081803,3,-16,True,"[74, 74, 74, 74]","[644, 1248, 1933, 2537]",43.84378078116181,50.0,709.6500000043306,6.156219218838189,True,2,1,60,6,0,0,31.0,0.9028819725263836,48.042562131790575,53.3671528329832,8.528235706711143,11.713464942660083,0.002412310636504775
IT1,2,4,843,71.17437722419929,1,-13,True,"[74, 74, 74]","[389, 755, 1620]",19.194949373496982,11.0,3216.1550000018906,-8.194949373496982,True,2,2,61,6,0,0,31.0,0.9028819725263836,48.042562131790575,53.3671528329832,-4.163005235543146,-5.263444908615119,0.001940513540048541
IT1,2,2,774,77.51937984496124,2,-19,True,"[74, 74, 74]","[685, 1712, 2554]",25.354902613380577,24.0,2217.4850000010338,-1.3549026133805775,True,2,2,62,6,0,0,31.0,0.9028819725263836,48.042562131790575,53.3671528329832,2.262211444518897,2.981813749266795,0.0001567995746265444
IT1,2,4,329,182.370820668693,5,-16,True,"[74, 74]","[470, 987]",87.06720173383901,100.0,2158.2500000076834,12.932798266160987,True,2,2,63,6,0,0,31.0,0.9028819725263836,48.042562131790575,53.3671528329832,12.39401746779329,17.46578215504956,0.01822174059189705
IT1,2,7,774,77.51937984496124,2,-13,True,"[74, 74, 74, 74, 74, 74]","[464, 964, 1498, 2026, 2566, 3036]",25.354902613380577,23.0,2090.1650000014342,-2.3549026133805775,True,2,2,64,6,0,0,31.0,0.9028819725263836,48.042562131790575,53.3671528329832,1.262211444518897,1.6529065663848639,2.2337662859801217e-05
IT1,2,6,504,119.04761904761905,3,-13,True,"[74, 74, 74, 74]","[511, 1091, 1654, 2183]",56.30039424560527,53.0,2095.369999995455,-3.3003942456052684,True,2,2,65,6,0,0,31.0,0.9028819725263836,48.042562131790575,53.3671528329832,-1.767244184055862,-2.269202450292197,7.326154576581983e-05
IT1,2,4,710,84.50704225352112,2,-19,True,"[74, 74, 74, 74, 74]","[551, 1068, 1643, 2177, 2781]",31.580629700998873,35.0,2351.920000015525,3.4193702990011268,True,2,2,66,6,0,0,31.0,0.9028819725263836,48.042562131790575,53.3671528329832,6.617224864891515,8.974783649126982,0.001816982952526245
IT1,2,7,329,182.370820668693,5,-16,True,"[74, 74]","[580, 1115]",87.06720173383901,73.0,2613.694999978179,-14.067201733839013,True,2,2,67,6,0,0,31.0,0.9028819725263836,48.042562131790575,53.3671528329832,-14.60598253220671,-17.279811533449244,0.017496658356873303
IT1,2,3,710,84.50704225352112,2,-16,True,"[74, 74, 74, 74, 74]","[534, 1051, 1591, 2154, 2943]",31.580629700998873,24.0,2458.6699999927077,-7.580629700998873,True,2,2,68,6,0,0,31.0,0.9028819725263836,48.042562131790575,53.3671528329832,-4.382775135108485,-5.533478343695832,0.0011276379918044991
IT1,2,4,550,109.0909090909091,3,-13,True,"[74, 74, 74, 74, 74]","[46, 691, 1236, 1765, 2241]",50.0,50.0,484.5550000027288,0.0,True,2,2,69,6,0,0,31.0,0.9028819725263836,48.042562131790575,53.3671528329832,1.957437868209425,2.5749678104558327,0.00013605910498846031
IT1,2,6,390,153.84615384615384,4,-13,True,"[74, 74, 74]","[470, 987, 1602]",74.79787473312055,63.0,1986.5850000060163,-11.797874733120551,True,2,2,70,6,0,0,31.0,0.9028819725263836,48.042562131790575,53.3671528329832,-11.51040154810292,-13.886177226044744,0.006890685921817643
IT1,2,5,504,119.04761904761905,3,-19,True,"[74, 74, 74, 74, 74]","[12, 499, 1103, 1660, 2136]",56.30039424560527,53.0,3012.0850000239443,-3.3003942456052684,True,2,2,71,6,0,0,31.0,0.9028819725263836,48.042562131790575,53.3671528329832,-1.767244184055862,-2.269202450292197,7.326154576581983e-05
IT1,2,3,1000,60.0,1,-13,True,"[74, 74, 74, 74, 74]","[1376, 2003, 2548, 3082, 3767]",6.875176187496734,0.0,3742.7350000070874,-6.875176187496734,True,2,2,72,6,0,0,31.0,0.9028819725263836,48.042562131790575,53.3671528329832,-2.0135808658438705,-2.5813912965156525,0.0012934541326453917
IT1,2,5,774,77.51937984496124,2,-16,True,"[74, 74, 74, 74, 74, 74]","[122, 673, 1254, 1788, 2328, 2961]",25.354902613380577,35.0,2080.889999982901,9.645097386619423,True,2,2,73,6,0,0,31.0,0.9028819725263836,48.042562131790575,53.3671528329832,13.262211444518897,18.79786273862575,0.009657887930830347
IT1,2,3,504,119.04761904761905,3,-19,True,"[74, 74, 74, 74]","[35, 662, 1202, 1771]",56.30039424560527,50.0,519.2699999897741,-6.300394245605268,True,2,2,74,6,0,0,31.0,0.9028819725263836,48.042562131790575,53.3671528329832,-4.767244184055862,-6.004029497327747,0.0006768265684427363
IT1,2,6,843,71.17437722419929,1,-13,True,"[74, 74, 74, 74, 74, 74]","[656, 1149, 1724, 2426, 2926, 3529]",19.194949373496982,34.0,2863.6199999891687,14.805050626503018,True,2,2,75,6,0,0,31.0,0.9028819725263836,48.042562131790575,53.3671528329832,18.836994764456854,27.718704842529345,0.025040117202822863
IT1,2,5,358,167.5977653631285,5,-16,True,"[74, 74, 74]","[418, 952, 1573]",80.97360155738828,77.0,3128.515000018524,-3.973601557388278,True,2,2,76,6,0,0,31.0,0.9028819725263836,48.042562131790575,53.3671528329832,-4.102020693811909,-5.188375880941623,0.0007188573040299343
IT1,2,7,425,141.1764705882353,4,-19,True,"[74, 74, 74]","[557, 1086, 1620]",68.5984388693479,63.0,1888.4050000051502,-5.598438869347902,True,2,2,77,6,0,0,31.0,0.9028819725263836,48.042562131790575,53.3671528329832,-4.893476723698257,-6.1580136437667194,0.0008555240560368491
IT1,2,6,329,182.370820668693,5,-19,True,"[74, 74, 74]","[6, 621, 1190]",87.06720173383901,75.0,2430.7499999995343,-12.067201733839013,True,2,2,78,6,0,0,31.0,0.9028819725263836,48.042562131790575,53.3671528329832,-12.60598253220671,-15.10287441536389,0.012651229772956954
IT1,2,2,918,65.359477124183,1,-13,True,"[74, 74, 74, 74, 74, 74, 74]","[215, 685, 1283, 1863, 2479, 3001, 3576]",13.046873249910696,23.0,2072.4049999844283,9.953126750089304,True,2,2,79,6,0,0,31.0,0.9028819725263836,48.042562131790575,53.3671528329832,14.399101126781737,20.56507522989833,0.017515674653593643
IT1,2,7,599,100.1669449081803,3,-19,True,"[74, 74, 74, 74, 74]","[122, 691, 1289, 1834, 2537]",43.84378078116181,38.0,2408.5250000061933,-5.843780781161811,True,2,2,80,6,0,0,31.0,0.9028819725263836,48.042562131790575,53.3671528329832,-3.4717642932888566,-4.4090680401519835,0.00042877139429642287
IT1,2,4,390,153.84615384615384,4,-13,True,"[74, 74, 74]","[75, 662, 1213]",74.79787473312055,76.0,1733.9199999987613,1.2021252668794489,True,2,2,81,6,0,0,31.0,0.9028819725263836,48.042562131790575,53.3671528329832,1.4895984518970806,1.9535684315157553,0.0003372777663573562
IT1,2,6,710,84.50704225352112,2,-19,True,"[74, 74, 74, 74, 74]","[81, 702, 1324, 1916, 2577]",31.580629700998873,31.0,1777.8050000197254,-0.5806297009988732,True,2,2,82,6,0,0,31.0,0.9028819725263836,48.042562131790575,53.3671528329832,2.617224864891515,3.4577605236857565,0.00022244717800000495
IT1,2,3,425,141.1764705882353,4,-16,True,"[74, 74, 74]","[163, 731, 1329]",68.5984388693479,70.0,2159.704999998212,1.401561130652098,True,2,2,83,6,0,0,31.0,0.9028819725263836,48.042562131790575,53.3671528329832,2.1065232763017434,2.7737825134822587,0.0003718247103072036
IT1,2,2,358,167.5977653631285,5,-19,True,"[74, 74, 74]","[46, 644, 1190]",80.97360155738828,67.0,2736.8849999911617,-13.973601557388278,True,2,2,84,6,0,0,31.0,0.9028819725263836,48.042562131790575,53.3671528329832,-14.102020693811909,-16.736582807661502,0.013183381551712696
IT1,2,5,425,141.1764705882353,4,-13,True,"[74, 74, 74, 74]","[81, 650, 1219, 1840]",68.5984388693479,58.0,1698.3849999960512,-10.598438869347902,True,2,2,85,6,0,0,31.0,0.9028819725263836,48.042562131790575,53.3671528329832,-9.893476723698257,-12.058571842301596,0.004085143624418106
IT1,2,7,918,65.359477124183,1,-13,True,"[74, 74, 74, 74, 74, 74]","[551, 1051, 1672, 2177, 2723, 3233]",13.046873249910696,23.0,1605.3550000069663,9.953126750089304,True,2,2,86,6,0,0,31.0,0.9028819725263836,48.042562131790575,53.3671528329832,14.399101126781737,20.56507522989833,0.017515674653593643
IT1,2,2,504,119.04761904761905,3,-13,True,"[74, 74, 74, 74]","[41, 627, 1184, 1753]",56.30039424560527,50.0,1873.9300000015646,-6.300394245605268,True,2,2,87,6,0,0,31.0,0.9028819725263836,48.042562131790575,53.3671528329832,-4.767244184055862,-6.004029497327747,0.0006768265684427363
IT1,2,5,843,71.17437722419929,1,-16,True,"[74, 74, 74, 74, 74, 74, 74]","[6, 575, 1080, 1654, 2194, 2711, 3390]",19.194949373496982,24.0,3479.409999999916,4.805050626503018,True,2,2,88,6,0,0,31.0,0.9028819725263836,48.042562131790575,53.3671528329832,8.836994764456854,12.16236303699212,0.004940356596121759
IT1,2,3,329,182.370820668693,5,-19,True,"[74, 74, 74]","[116, 702, 1219]",87.06720173383901,100.0,2509.4850000168663,12.932798266160987,True,2,2,89,6,0,0,31.0,0.9028819725263836,48.042562131790575,53.3671528329832,12.39401746779329,17.46578215504956,0.01822174059189705
IT1,2,2,463,129.58963282937364,4,-16,True,"[74, 74, 74]","[534, 1091, 1625]",62.42097125758927,50.0,540.804999996908,-12.420971257589272,True,2,2,90,6,0,0,31.0,0.9028819725263836,48.042562131790575,53.3671528329832,-11.29999956054774,-13.650527097743536,0.004577707713421671
IT1,3,7,843,71.17437722419929,1,-16,False,"[74, 74, 74, 74, 74]","[576, 1205, 1851, 2459, 3205]",19.194949373496982,3.0,1938.495000009425,-16.194949373496982,True,0,0,1,6,0,0,42.0,0.6025996705917629,47.22193399440903,23.070546935054097,-30.00814666809992,-59.40742990180257,0.040241750195058226
IT1,3,2,302,198.67549668874173,5,-16,False,"[74, 74, 74]","[165, 651, 1120]",93.24415345434716,73.0,2630.3199999965727,-20.244153454347156,True,0,0,2,6,0,0,42.0,0.6025996705917629,47.22193399440903,23.070546935054097,5.824740566887016,19.124914885020516,0.002020432745497728
IT1,3,3,918,65.359477124183,1,-13,False,"[74, 74, 74, 74, 74]","[469, 1024, 1579, 2229, 2736]",13.046873249910696,6.0,2943.3999999891967,-7.046873249910696,True,0,0,3,6,0,0,42.0,0.6025996705917629,47.22193399440903,23.070546935054097,-24.17135709271026,-51.62662701339828,0.03242378778331741
IT1,3,5,390,153.84615384615384,4,-13,False,,,74.79787473312055,76.0,8608.040000020992,1.2021252668794489,False,0,0,4,6,0,0,42.0,0.6025996705917629,47.22193399440903,23.070546935054097,17.336055347189976,68.34684533153572,0.010686493966027425
IT1,3,2,710,84.50704225352112,2,-19,False,,,31.580629700998873,0.0,2095.5949999624863,-31.580629700998873,False,0,0,5,6,0,0,42.0,0.6025996705917629,47.22193399440903,23.070546935054097,-38.72303505446409,-68.75844742855676,0.042500136307266706
IT1,3,6,918,65.359477124183,1,-13,False,,,13.046873249910696,0.0,2322.764999989886,-13.046873249910696,False,0,0,6,6,0,0,42.0,0.6025996705917629,47.22193399440903,23.070546935054097,-30.17135709271026,-59.60599259072551,0.051205585546091795
IT1,3,3,710,84.50704225352112,2,-13,False,,,31.580629700998873,21.0,3195.3750000102445,-10.580629700998873,False,0,0,7,6,0,0,42.0,0.6025996705917629,47.22193399440903,23.070546935054097,-17.72303505446409,-41.285466586694916,0.008646011230208233
IT1,3,4,843,71.17437722419929,1,-16,False,,,19.194949373496982,50.0,3751.9350000075065,30.805050626503018,False,0,0,8,6,0,0,42.0,0.6025996705917629,47.22193399440903,23.070546935054097,16.99185333190008,66.61486768684317,0.01463161197724079
IT1,3,6,774,77.51937984496124,2,-16,False,,,25.354902613380577,25.0,3296.4049999718554,-0.3549026133805775,False,0,0,9,6,0,0,42.0,0.6025996705917629,47.22193399440903,23.070546935054097,-10.850416474869377,-27.819285046058134,0.0038797651774144233
IT1,3,7,302,198.67549668874173,5,-19,False,,,93.24415345434716,70.0,3626.339999958873,-23.244153454347156,False,0,0,10,6,0,0,42.0,0.6025996705917629,47.22193399440903,23.070546935054097,2.824740566887016,8.857382711147096,0.0003624678383804873
IT1,3,5,550,109.0909090909091,3,-16,False,,,50.0,27.0,3153.280000027735,-23.0,False,0,0,11,6,0,0,42.0,0.6025996705917629,47.22193399440903,23.070546935054097,-20.221933994409028,-45.532256325801264,0.007822547870774438
IT1,3,7,774,77.51937984496124,2,-19,False,,,25.354902613380577,28.0,4098.800000036135,2.6450973866194225,False,0,0,12,6,0,0,42.0,0.6025996705917629,47.22193399440903,23.070546935054097,-7.850416474869377,-21.011131160075593,0.0019443805151108395
IT1,3,4,463,129.58963282937364,4,-13,False,,,62.42097125758927,34.0,10113.58999996446,-28.420971257589272,False,0,0,13,6,0,0,42.0,0.6025996705917629,47.22193399440903,23.070546935054097,-18.95310600195245,-43.41577720215102,0.008574984046916785
IT1,3,5,774,77.51937984496124,2,-13,False,,,25.354902613380577,37.0,3862.779999966733,11.645097386619423,False,0,0,14,6,0,0,42.0,0.6025996705917629,47.22193399440903,23.070546935054097,1.1495835251306232,3.5142261682431823,0.000109888299511467
IT1,3,7,425,141.1764705882353,4,-16,False,,,68.5984388693479,28.0,10267.255000013392,-40.5984388693479,False,0,0,15,6,0,0,42.0,0.6025996705917629,47.22193399440903,23.070546935054097,-27.80345713148953,-56.627559099524724,0.022785494455443995
IT1,3,5,302,198.67549668874173,5,-16,False,,,93.24415345434716,78.0,3166.609999956563,-15.244153454347156,False,0,0,16,6,0,0,42.0,0.6025996705917629,47.22193399440903,23.070546935054097,10.824740566887016,38.43432746428405,0.007767534501152201
IT1,3,2,425,141.1764705882353,4,-16,False,,,68.5984388693479,64.0,3868.910000019241,-4.598438869347902,False,0,0,17,6,0,0,42.0,0.6025996705917629,47.22193399440903,23.070546935054097,8.19654286851047,27.9235329580407,0.0018669685042966724
IT1,3,4,329,182.370820668693,5,-19,False,,,87.06720173383901,29.0,24755.45499997679,-58.06720173383901,False,0,0,18,6,0,0,42.0,0.6025996705917629,47.22193399440903,23.070546935054097,-35.325146341442064,-65.40055996032518,0.07614445073623952
IT1,3,6,463,129.58963282937364,4,-13,False,,,62.42097125758927,50.0,7249.055000022054,-12.420971257589272,False,0,0,19,6,0,0,42.0,0.6025996705917629,47.22193399440903,23.070546935054097,-2.953106001952449,-8.490292124545201,0.00021726220093886642
IT1,3,4,550,109.0909090909091,3,-13,False,,,50.0,50.0,1265.1199999963865,0.0,False,0,0,20,6,0,0,42.0,0.6025996705917629,47.22193399440903,23.070546935054097,2.778066005590972,8.704836569114763,0.00016563852916439526
IT1,3,3,302,198.67549668874173,5,-16,False,,,93.24415345434716,100.0,6370.189999986906,6.755846545652844,False,0,0,21,6,0,0,42.0,0.6025996705917629,47.22193399440903,23.070546935054097,32.824740566887016,168.10507769475208,0.07736461184634909
IT1,3,2,1000,60.0,1,-16,False,,,6.875176187496734,0.0,4374.5700000436045,-6.875176187496734,False,0,0,22,6,0,0,42.0,0.6025996705917629,47.22193399440903,23.070546935054097,-27.323668557763124,-55.99781327965742,0.0520949287612316
IT1,3,3,504,119.04761904761905,3,-16,False,,,56.30039424560527,50.0,6796.990000002552,-6.300394245605268,False,0,0,23,6,0,0,42.0,0.6025996705917629,47.22193399440903,23.070546935054097,-0.12900481746064685,-0.3868406712112005,1.9157566814832831e-07
IT1,3,6,329,182.370820668693,5,-19,False,,,87.06720173383901,72.0,4352.335000003222,-15.067201733839013,False,0,0,24,6,0,0,42.0,0.6025996705917629,47.22193399440903,23.070546935054097,7.674853658557936,25.934093382382166,0.003042633198184329
IT1,3,7,550,109.0909090909091,3,-16,False,,,50.0,50.0,933.6449999827892,0.0,False,0,0,25,6,0,0,42.0,0.6025996705917629,47.22193399440903,23.070546935054097,2.778066005590972,8.704836569114763,0.00016563852916439526
IT1,3,5,1000,60.0,1,-13,False,,,6.875176187496734,50.0,7520.989999989979,43.124823812503266,False,0,0,26,6,0,0,42.0,0.6025996705917629,47.22193399440903,23.070546935054097,22.676331442236876,97.64515739839048,0.04150952856976113
IT1,3,2,599,100.1669449081803,3,-16,False,,,43.84378078116181,50.0,840.0649999966845,6.156219218838189,False,0,0,27,6,0,0,42.0,0.6025996705917629,47.22193399440903,23.070546935054097,5.6186128942047375,18.3894492816359,0.0007061332618990449
IT1,3,3,425,141.1764705882353,4,-16,False,,,68.5984388693479,50.0,4613.985000003595,-18.598438869347902,False,0,0,28,6,0,0,42.0,0.6025996705917629,47.22193399440903,23.070546935054097,-5.80345713148953,-16.00080810568405,0.0010431026630215304
IT1,3,6,550,109.0909090909091,3,-16,False,,,50.0,50.0,3144.6750000468455,0.0,False,0,0,29,6,0,0,42.0,0.6025996705917629,47.22193399440903,23.070546935054097,2.778066005590972,8.704836569114763,0.00016563852916439526
IT1,3,4,710,84.50704225352112,2,-13,False,,,31.580629700998873,50.0,9545.920000004116,18.419370299001127,False,0,0,30,6,0,0,42.0,0.6025996705917629,47.22193399440903,23.070546935054097,11.276964945535909,40.32806175285725,0.004006987943877354
IT1,3,5,710,84.50704225352112,2,-19,False,,,31.580629700998873,50.0,7469.625000027008,18.419370299001127,False,0,1,31,6,0,0,42.0,0.6025996705917629,47.22193399440903,23.070546935054097,11.276964945535909,40.32806175285725,0.004006987943877354
IT1,3,2,918,65.359477124183,1,-19,False,,,13.046873249910696,50.0,3832.8399999882095,36.953126750089304,False,0,1,32,6,0,0,42.0,0.6025996705917629,47.22193399440903,23.070546935054097,19.82864290728974,81.43825449172247,0.02524408724992603
IT1,3,7,504,119.04761904761905,3,-13,False,,,56.30039424560527,50.0,21266.145000001416,-6.300394245605268,False,0,1,33,6,0,0,42.0,0.6025996705917629,47.22193399440903,23.070546935054097,-0.12900481746064685,-0.3868406712112005,1.9157566814832831e-07
IT1,3,6,1000,60.0,1,-16,False,,,6.875176187496734,50.0,12820.100000011735,43.124823812503266,False,0,1,34,6,0,0,42.0,0.6025996705917629,47.22193399440903,23.070546935054097,22.676331442236876,97.64515739839048,0.04150952856976113
IT1,3,2,550,109.0909090909091,3,-13,False,,,50.0,37.0,7849.61499995552,-13.0,False,0,1,35,6,0,0,42.0,0.6025996705917629,47.22193399440903,23.070546935054097,-10.221933994409028,-26.4433793378117,0.001970922049190455
IT1,3,7,918,65.359477124183,1,-19,False,,,13.046873249910696,35.0,9075.394999992568,21.953126750089304,False,0,1,36,6,0,0,42.0,0.6025996705917629,47.22193399440903,23.070546935054097,4.8286429072897405,15.612630758292106,0.0018777282812071677
IT1,3,4,599,100.1669449081803,3,-19,False,,,43.84378078116181,33.0,4974.344999995083,-10.843780781161811,False,0,1,37,6,0,0,42.0,0.6025996705917629,47.22193399440903,23.070546935054097,-11.381387105795262,-28.961636502028423,0.002537316292065296
IT1,3,7,652,92.02453987730061,2,-13,False,,,37.727982709047225,40.0,74283.95999997156,2.2720172909527747,False,0,1,38,6,0,0,42.0,0.6025996705917629,47.22193399440903,23.070546935054097,-1.5594909764345957,-4.577368292481064,3.403502776809267e-05
IT1,3,4,302,198.67549668874173,5,-16,False,,,93.24415345434716,50.0,4195.309999980964,-43.244153454347156,False,0,1,39,6,0,0,42.0,0.6025996705917629,47.22193399440903,23.070546935054097,-17.175259433112984,-40.311162465686074,0.02362337792787821
IT1,3,5,918,65.359477124183,1,-19,False,,,13.046873249910696,71.0,3840.4149999842048,57.953126750089304,False,0,1,40,6,0,0,42.0,0.6025996705917629,47.22193399440903,23.070546935054097,40.82864290728974,240.9901742701344,0.10281991398503121
IT1,3,4,425,141.1764705882353,4,-16,False,,,68.5984388693479,75.0,5617.834999982733,6.401561130652098,False,0,1,41,6,0,0,42.0,0.6025996705917629,47.22193399440903,23.070546935054097,19.19654286851047,78.02502981226658,0.010513263232807685
IT1,3,2,774,77.51937984496124,2,-13,False,,,25.354902613380577,51.0,3247.414999990724,25.645097386619423,False,0,1,42,6,0,0,42.0,0.6025996705917629,47.22193399440903,23.070546935054097,15.149583525130623,57.64324899124876,0.009097669763785269
IT1,3,7,390,153.84615384615384,4,-13,False,,,74.79787473312055,50.0,64702.529999951366,-24.79787473312055,False,0,1,43,6,0,0,42.0,0.6025996705917629,47.22193399440903,23.070546935054097,-8.663944652810024,-22.91838861462771,0.002953126534809104
IT1,3,2,329,182.370820668693,5,-19,False,,,87.06720173383901,100.0,2309.349999995902,12.932798266160987,False,0,1,44,6,0,0,42.0,0.6025996705917629,47.22193399440903,23.070546935054097,35.674853658557936,192.07473695885244,0.07331204048605383
IT1,3,6,390,153.84615384615384,4,-16,False,,,74.79787473312055,65.0,3885.6500000110827,-9.797874733120551,False,0,1,45,6,0,0,42.0,0.6025996705917629,47.22193399440903,23.070546935054097,6.336055347189976,20.96907519049897,0.0013431183353877863
IT1,3,7,329,182.370820668693,5,-13,False,,,87.06720173383901,50.0,7180.044999986421,-37.06720173383901,False,0,1,46,6,0,0,42.0,0.6025996705917629,47.22193399440903,23.070546935054097,-14.325146341442064,-34.97474321592953,0.013051101858884384
IT1,3,2,463,129.58963282937364,4,-19,False,,,62.42097125758927,50.0,3378.550000023097,-12.420971257589272,False,0,1,47,6,0,0,42.0,0.6025996705917629,47.22193399440903,23.070546935054097,-2.953106001952449,-8.490292124545201,0.00021726220093886642
IT1,3,6,302,198.67549668874173,5,-16,False,,,93.24415345434716,50.0,15140.995000023395,-43.244153454347156,False,0,1,48,6,0,0,42.0,0.6025996705917629,47.22193399440903,23.070546935054097,-17.175259433112984,-40.311162465686074,0.02362337792787821
IT1,3,5,425,141.1764705882353,4,-19,False,,,68.5984388693479,69.0,4604.055000003427,0.4015611306520981,False,0,1,49,6,0,0,42.0,0.6025996705917629,47.22193399440903,23.070546935054097,13.19654286851047,48.659147156531375,0.004924487391709775
IT1,3,3,599,100.1669449081803,3,-13,False,,,43.84378078116181,50.0,16338.095000013709,6.156219218838189,False,0,1,50,6,0,0,42.0,0.6025996705917629,47.22193399440903,23.070546935054097,5.6186128942047375,18.3894492816359,0.0007061332618990449
IT1,3,4,1000,60.0,1,-19,False,,,6.875176187496734,14.0,2814.4450000254437,7.124823812503266,False,0,1,51,6,0,0,42.0,0.6025996705917629,47.22193399440903,23.070546935054097,-13.323668557763124,-32.988460291050714,0.011510752014228973
IT1,3,3,652,92.02453987730061,2,-19,False,,,37.727982709047225,50.0,1736.2399999983609,12.272017290952775,False,0,1,52,6,0,0,42.0,0.6025996705917629,47.22193399440903,23.070546935054097,8.440509023565404,28.864642623750598,0.0018336224776416604
IT1,3,5,504,119.04761904761905,3,-19,False,,,56.30039424560527,50.0,1648.1449999846518,-6.300394245605268,False,0,1,53,6,0,0,42.0,0.6025996705917629,47.22193399440903,23.070546935054097,-0.12900481746064685,-0.3868406712112005,1.9157566814832831e-07
IT1,3,6,710,84.50704225352112,2,-19,False,,,31.580629700998873,50.0,1005.4699999745935,18.419370299001127,False,0,1,54,6,0,0,42.0,0.6025996705917629,47.22193399440903,23.070546935054097,11.276964945535909,40.32806175285725,0.004006987943877354
IT1,3,3,463,129.58963282937364,4,-13,False,,,62.42097125758927,50.0,4606.330000038724,-12.420971257589272,False,0,1,55,6,0,0,42.0,0.6025996705917629,47.22193399440903,23.070546935054097,-2.953106001952449,-8.490292124545201,0.00021726220093886642
IT1,3,4,652,92.02453987730061,2,-16,False,,,37.727982709047225,50.0,2045.2199999708682,12.272017290952775,False,0,1,56,6,0,0,42.0,0.6025996705917629,47.22193399440903,23.070546935054097,8.440509023565404,28.864642623750598,0.0018336224776416604
IT1,3,3,358,167.5977653631285,5,-13,False,,,80.97360155738828,72.0,5533.69000001112,-8.973601557388278,False,0,1,57,6,0,0,42.0,0.6025996705917629,47.22193399440903,23.070546935054097,10.486507436043155,37.03466696320003,0.004764839571141888
IT1,3,6,599,100.1669449081803,3,-19,False,,,43.84378078116181,50.0,14907.904999970924,6.156219218838189,False,0,1,58,6,0,0,42.0,0.6025996705917629,47.22193399440903,23.070546935054097,5.6186128942047375,18.3894492816359,0.0007061332618990449
IT1,3,5,358,167.5977653631285,5,-19,False,,,80.97360155738828,50.0,5016.379999986384,-30.973601557388278,False,0,1,59,6,0,0,42.0,0.6025996705917629,47.22193399440903,23.070546935054097,-11.513492563956845,-29.243033651376212,0.006656089298085581
IT1,3,3,1000,60.0,1,-16,False,,,6.875176187496734,32.0,7216.7999999946915,25.124823812503266,False,0,1,60,6,0,0,42.0,0.6025996705917629,47.22193399440903,23.070546935054097,4.676331442236876,15.084778807989093,0.0023256844176723383
IT1,3,5,599,100.1669449081803,3,-13,False,,,43.84378078116181,50.0,5200.870000000577,6.156219218838189,False,0,2,61,6,0,0,42.0,0.6025996705917629,47.22193399440903,23.070546935054097,5.6186128942047375,18.3894492816359,0.0007061332618990449
IT1,3,2,358,167.5977653631285,5,-13,False,,,80.97360155738828,82.0,3339.3250000081025,1.0263984426117219,False,0,2,62,6,0,0,42.0,0.6025996705917629,47.22193399440903,23.070546935054097,20.486507436043155,85.06011696893913,0.01890298452612712
IT1,3,5,652,92.02453987730061,2,-16,False,,,37.727982709047225,50.0,10236.124999995809,12.272017290952775,False,0,2,63,6,0,0,42.0,0.6025996705917629,47.22193399440903,23.070546935054097,8.440509023565404,28.864642623750598,0.0018336224776416604
IT1,3,4,358,167.5977653631285,5,-13,False,,,80.97360155738828,50.0,4109.799999976531,-30.973601557388278,False,0,2,64,6,0,0,42.0,0.6025996705917629,47.22193399440903,23.070546935054097,-11.513492563956845,-29.243033651376212,0.006656089298085581
IT1,3,2,504,119.04761904761905,3,-19,False,,,56.30039424560527,32.0,12760.94499998726,-24.30039424560527,False,0,2,65,6,0,0,42.0,0.6025996705917629,47.22193399440903,23.070546935054097,-18.129004817460647,-41.9972714807735,0.006709876914445357
IT1,3,3,329,182.370820668693,5,-19,False,,,87.06720173383901,35.0,8130.245000007562,-52.06720173383901,False,0,2,66,6,0,0,42.0,0.6025996705917629,47.22193399440903,23.070546935054097,-29.325146341442064,-58.56584366069924,0.052781585879886544
IT1,3,7,1000,60.0,1,-13,False,,,6.875176187496734,3.0,2946.0099999560043,-3.8751761874967343,False,0,2,67,6,0,0,42.0,0.6025996705917629,47.22193399440903,23.070546935054097,-24.323668557763124,-51.84748505551907,0.04093508784147328
IT1,3,6,358,167.5977653631285,5,-13,False,,,80.97360155738828,83.0,4051.6499999794178,2.026398442611722,False,0,2,68,6,0,0,42.0,0.6025996705917629,47.22193399440903,23.070546935054097,21.486507436043155,90.70455691244496,0.020832348531436756
IT1,3,7,599,100.1669449081803,3,-19,False,,,43.84378078116181,70.0,9546.235000016168,26.15621921883819,False,0,2,69,6,0,0,42.0,0.6025996705917629,47.22193399440903,23.070546935054097,25.618612894204738,115.91249087409642,0.013711622455354197
IT1,3,5,329,182.370820668693,5,-13,False,,,87.06720173383901,90.0,6358.074999996461,2.9327982661609866,False,0,2,70,6,0,0,42.0,0.6025996705917629,47.22193399440903,23.070546935054097,25.674853658557936,116.27763433348726,0.037543436100454616
IT1,3,4,504,119.04761904761905,3,-16,False,,,56.30039424560527,62.0,10028.330000001006,5.699605754394732,False,0,2,71,6,0,0,42.0,0.6025996705917629,47.22193399440903,23.070546935054097,11.870995182539353,42.85504252310502,0.0029030259810729326
IT1,3,7,463,129.58963282937364,4,-19,False,,,62.42097125758927,62.0,9996.245000045747,-0.42097125758927234,False,0,2,72,6,0,0,42.0,0.6025996705917629,47.22193399440903,23.070546935054097,9.046893998047551,31.23389819086831,0.0019058662269538162
IT1,3,2,652,92.02453987730061,2,-16,False,,,37.727982709047225,31.0,3919.0200000302866,-6.727982709047225,False,0,2,73,6,0,0,42.0,0.6025996705917629,47.22193399440903,23.070546935054097,-10.559490976434596,-27.185605116198225,0.002462466983200588
IT1,3,7,358,167.5977653631285,5,-16,False,,,80.97360155738828,50.0,6523.545000003651,-30.973601557388278,False,0,2,74,6,0,0,42.0,0.6025996705917629,47.22193399440903,23.070546935054097,-11.513492563956845,-29.243033651376212,0.006656089298085581
IT1,3,3,774,77.51937984496124,2,-16,False,,,25.354902613380577,50.0,3632.704999996349,24.645097386619423,False,0,2,75,6,0,0,42.0,0.6025996705917629,47.22193399440903,23.070546935054097,14.149583525130623,52.97735182635424,0.007977614975081404
IT1,3,4,918,65.359477124183,1,-13,False,,,13.046873249910696,50.0,2444.764999963809,36.953126750089304,False,0,2,76,6,0,0,42.0,0.6025996705917629,47.22193399440903,23.070546935054097,19.82864290728974,81.43825449172247,0.02524408724992603
IT1,3,3,550,109.0909090909091,3,-19,False,,,50.0,50.0,8385.59499999974,0.0,False,0,2,77,6,0,0,42.0,0.6025996705917629,47.22193399440903,23.070546935054097,2.778066005590972,8.704836569114763,0.00016563852916439526
IT1,3,2,390,153.84615384615384,4,-13,False,,,74.79787473312055,75.0,2712.225000024773,0.20212526687944887,False,0,2,78,6,0,0,42.0,0.6025996705917629,47.22193399440903,23.070546935054097,16.336055347189976,63.364145004197596,0.009469122464283426
IT1,3,6,504,119.04761904761905,3,-13,False,,,56.30039424560527,50.0,2449.209999991581,-6.300394245605268,False,0,2,79,6,0,0,42.0,0.6025996705917629,47.22193399440903,23.070546935054097,-0.12900481746064685,-0.3868406712112005,1.9157566814832831e-07
IT1,3,2,843,71.17437722419929,1,-13,False,,,19.194949373496982,34.0,2738.520000013523,14.805050626503018,False,0,2,80,6,0,0,42.0,0.6025996705917629,47.22193399440903,23.070546935054097,0.9918533319000815,3.024837621137552,0.00013207475317150255
IT1,3,4,390,153.84615384615384,4,-19,False,,,74.79787473312055,32.0,7035.759999998845,-42.79787473312055,False,0,2,81,6,0,0,42.0,0.6025996705917629,47.22193399440903,23.070546935054097,-26.663944652810024,-55.11693626488425,0.0267427751722541
IT1,3,3,843,71.17437722419929,1,-19,False,,,19.194949373496982,30.0,7077.20999995945,10.805050626503018,False,0,2,82,6,0,0,42.0,0.6025996705917629,47.22193399440903,23.070546935054097,-3.0081466680999185,-8.64149476613486,0.0002520101486515581
IT1,3,6,425,141.1764705882353,4,-19,False,,,68.5984388693479,50.0,5945.475000014994,-18.598438869347902,False,0,2,83,6,0,0,42.0,0.6025996705917629,47.22193399440903,23.070546935054097,-5.80345713148953,-16.00080810568405,0.0010431026630215304
IT1,3,4,774,77.51937984496124,2,-19,False,,,25.354902613380577,50.0,5101.115000026766,24.645097386619423,False,0,2,84,6,0,0,42.0,0.6025996705917629,47.22193399440903,23.070546935054097,14.149583525130623,52.97735182635424,0.007977614975081404
IT1,3,6,843,71.17437722419929,1,-19,False,,,19.194949373496982,31.0,12808.839999954216,11.805050626503018,False,0,2,85,6,0,0,42.0,0.6025996705917629,47.22193399440903,23.070546935054097,-2.0081466680999185,-5.855007841955686,8.159556097539264e-05
IT1,3,5,463,129.58963282937364,4,-16,False,,,62.42097125758927,20.0,8839.249999960884,-42.42097125758927,False,0,2,86,6,0,0,42.0,0.6025996705917629,47.22193399440903,23.070546935054097,-32.95310600195245,-62.84476453174374,0.02583410992527045
IT1,3,7,710,84.50704225352112,2,-16,False,,,31.580629700998873,27.0,2851.139999984298,-4.580629700998873,False,0,2,87,6,0,0,42.0,0.6025996705917629,47.22193399440903,23.070546935054097,-11.723035054464091,-29.687094529670716,0.003678321056858949
IT1,3,3,390,153.84615384615384,4,-19,False,,,74.79787473312055,78.0,4263.870000024326,3.202125266879449,False,0,2,88,6,0,0,42.0,0.6025996705917629,47.22193399440903,23.070546935054097,19.336055347189976,78.77280699030062,0.013342021199799657
IT1,3,6,652,92.02453987730061,2,-13,False,,,37.727982709047225,30.0,2220.4050000291318,-7.727982709047225,False,0,2,89,6,0,0,42.0,0.6025996705917629,47.22193399440903,23.070546935054097,-11.559490976434596,-29.34075277285875,0.002969021449612311
IT1,3,5,843,71.17437722419929,1,-16,False,,,19.194949373496982,18.0,2245.7600000198,-1.194949373496982,False,0,2,90,6,0,0,42.0,0.6025996705917629,47.22193399440903,23.070546935054097,-15.008146668099918,-36.295498029556065,0.00959938361868543
IT1,4,6,550,109.0909090909091,3,-16,False,,,50.0,38.0,2763.7799996882677,-12.0,False,0,0,1,6,0,0,23.0,0.6166749618264268,51.89402012649512,26.150455243075893,-13.894020126495121,-30.807423494141535,0.003988195577132308
IT1,4,7,425,141.1764705882353,4,-16,False,,,68.5984388693479,18.0,4197.110000066459,-50.5984388693479,False,0,0,2,6,0,0,23.0,0.6166749618264268,51.89402012649512,26.150455243075893,-43.62117299137442,-68.53291705301675,0.05944691754759922
IT1,4,4,302,198.67549668874173,5,-16,False,,,93.24415345434716,89.0,4537.150000222027,-4.244153454347156,False,0,0,3,6,0,0,23.0,0.6166749618264268,51.89402012649512,26.150455243075893,14.488893884852658,46.821063171547294,0.027848409250090182
IT1,4,6,463,129.58963282937364,4,-16,False,,,62.42097125758927,65.0,1964.4800000824034,2.5790287424107277,False,0,0,4,6,0,0,23.0,0.6166749618264268,51.89402012649512,26.150455243075893,6.609698814562471,19.148149799918826,0.001787376704099318
IT1,4,2,918,65.359477124183,1,-16,False,,,13.046873249910696,11.0,2902.2400001995265,-2.0468732499106963,False,0,0,5,6,0,0,23.0,0.6166749618264268,51.89402012649512,26.150455243075893,-21.567198383096702,-43.54141418023095,0.03758876531662654
IT1,4,6,652,92.02453987730061,2,-19,False,,,37.727982709047225,12.0,1886.1400000751019,-25.727982709047225,False,0,0,6,6,0,0,23.0,0.6166749618264268,51.89402012649512,26.150455243075893,-33.475643348308836,-58.82378971791817,0.031285075955271524
IT1,4,4,425,141.1764705882353,4,-16,False,,,68.5984388693479,65.0,3135.1050003431737,-3.598438869347902,False,0,0,7,6,0,0,23.0,0.6166749618264268,51.89402012649512,26.150455243075893,3.378827008625578,9.369251976167373,0.0009178679424351112
IT1,4,6,1000,60.0,1,-19,False,,,6.875176187496734,12.0,2614.684999920428,5.124823812503266,False,0,0,8,6,0,0,23.0,0.6166749618264268,51.89402012649512,26.150455243075893,-17.33934462700712,-36.846303248340746,0.0329775148668599
IT1,4,2,652,92.02453987730061,2,-19,False,,,37.727982709047225,18.0,2704.6550000086427,-19.727982709047225,False,0,0,9,6,0,0,23.0,0.6166749618264268,51.89402012649512,26.150455243075893,-27.475643348308836,-51.725792749569216,0.02111412948274217
IT1,4,7,843,71.17437722419929,1,-19,False,,,19.194949373496982,12.0,2435.8950001187623,-7.194949373496982,False,0,0,10,6,0,0,23.0,0.6166749618264268,51.89402012649512,26.150455243075893,-23.782698173114042,-46.76143363835125,0.03448486615324069
IT1,4,3,710,84.50704225352112,2,-13,False,,,31.580629700998873,21.0,2205.7150001637638,-10.580629700998873,False,0,0,11,6,0,0,23.0,0.6166749618264268,51.89402012649512,26.150455243075893,-21.260521754301713,-43.08060276640152,0.016128272900369008
IT1,4,2,599,100.1669449081803,3,-16,False,,,43.84378078116181,41.0,3930.685000028461,-2.8437807811618114,False,0,0,12,6,0,0,23.0,0.6166749618264268,51.89402012649512,26.150455243075893,-7.67426142351929,-18.406037559680094,0.0013218149222380816
IT1,4,5,1000,60.0,1,-19,False,,,6.875176187496734,50.0,1422.479999717325,43.124823812503266,False,0,0,13,6,0,0,23.0,0.6166749618264268,51.89402012649512,26.150455243075893,20.66065537299288,72.91567648283007,0.030077938571405508
IT1,4,4,550,109.0909090909091,3,-13,False,,,50.0,73.0,1848.1050003319979,23.0,False,0,0,14,6,0,0,23.0,0.6166749618264268,51.89402012649512,26.150455243075893,21.10597987350488,74.96883676488376,0.01072704752716411
IT1,4,5,390,153.84615384615384,4,-16,False,,,74.79787473312055,83.0,1920.8599999547005,8.202125266879449,False,0,0,15,6,0,0,23.0,0.6166749618264268,51.89402012649512,26.150455243075893,18.136465606867446,61.72503402735402,0.017811996234046293
IT1,4,4,843,71.17437722419929,1,-19,False,,,19.194949373496982,76.0,2794.3149995990098,56.80505062650302,False,0,0,16,6,0,0,23.0,0.6166749618264268,51.89402012649512,26.150455243075893,40.21730182688596,190.37550520103227,0.08283619052011862
IT1,4,5,358,167.5977653631285,5,-13,False,,,80.97360155738828,88.0,3531.3799995929003,7.026398442611722,False,0,0,17,6,0,0,23.0,0.6166749618264268,51.89402012649512,26.150455243075893,19.906504248637916,69.4934756109435,0.02776366478842464
IT1,4,3,550,109.0909090909091,3,-16,False,,,50.0,78.0,2416.8050000444055,28.0,False,0,0,18,6,0,0,23.0,0.6166749618264268,51.89402012649512,26.150455243075893,26.10597987350488,99.7643649963887,0.016227988252608926
IT1,4,5,710,84.50704225352112,2,-13,False,,,31.580629700998873,68.0,3286.3349998369813,36.41937029900113,False,0,0,19,6,0,0,23.0,0.6166749618264268,51.89402012649512,26.150455243075893,25.739478245698287,97.83314229861938,0.021581653448439736
IT1,4,3,329,182.370820668693,5,-13,False,,,87.06720173383901,70.0,2244.7700002230704,-17.067201733839013,False,0,0,20,6,0,0,23.0,0.6166749618264268,51.89402012649512,26.150455243075893,-1.2805041250315696,-3.337165900852166,0.00020187700223467563
IT1,4,7,504,119.04761904761905,3,-19,False,,,56.30039424560527,69.0,2394.429999869317,12.699605754394732,False,0,0,21,6,0,0,23.0,0.6166749618264268,51.89402012649512,26.150455243075893,13.81081631883621,44.205790587170526,0.00528142744350984
IT1,4,6,302,198.67549668874173,5,-13,False,,,93.24415345434716,78.0,2676.0050002485514,-15.244153454347156,False,0,0,22,6,0,0,23.0,0.6166749618264268,51.89402012649512,26.150455243075893,3.488893884852658,9.688796779835252,0.0041139766164602805
IT1,4,3,843,71.17437722419929,1,-16,False,,,19.194949373496982,9.0,2177.059999667108,-10.194949373496982,False,0,0,23,6,0,0,23.0,0.6166749618264268,51.89402012649512,26.150455243075893,-26.782698173114042,-50.83093347384618,0.04322115070043978
IT1,4,7,302,198.67549668874173,5,-19,False,,,93.24415345434716,65.0,3420.384999830276,-28.244153454347156,False,0,0,24,6,0,0,23.0,0.6166749618264268,51.89402012649512,26.150455243075893,-9.511106115147342,-22.283496242817534,0.00328071325404282
IT1,4,3,425,141.1764705882353,4,-16,False,,,68.5984388693479,62.0,3820.9849996492267,-6.598438869347902,False,0,0,25,6,0,0,23.0,0.6166749618264268,51.89402012649512,26.150455243075893,0.37882700862557783,1.0091817612444676,0.00016383270319332387
IT1,4,4,710,84.50704225352112,2,-16,False,,,31.580629700998873,44.0,2777.0850001834333,12.419370299001127,False,0,0,26,6,0,0,23.0,0.6166749618264268,51.89402012649512,26.150455243075893,1.7394782456982867,4.718626977804048,4.957618128703316e-05
IT1,4,2,425,141.1764705882353,4,-13,False,,,68.5984388693479,73.0,2220.0949997641146,4.401561130652098,False,0,0,27,6,0,0,23.0,0.6166749618264268,51.89402012649512,26.150455243075893,11.378827008625578,35.20319204559198,0.005921916595446634
IT1,4,5,550,109.0909090909091,3,-19,False,,,50.0,56.0,5009.370000101626,6.0,False,0,0,28,6,0,0,23.0,0.6166749618264268,51.89402012649512,26.150455243075893,4.105979873504879,11.49768107380083,0.0005103720534393305
IT1,4,2,302,198.67549668874173,5,-13,False,,,93.24415345434716,89.0,3629.2900000698864,-4.244153454347156,False,0,0,29,6,0,0,23.0,0.6166749618264268,51.89402012649512,26.150455243075893,14.488893884852658,46.821063171547294,0.027848409250090182
IT1,4,7,774,77.51937984496124,2,-13,False,,,25.354902613380577,60.0,4905.6000001728535,34.645097386619426,False,0,0,30,6,0,0,23.0,0.6166749618264268,51.89402012649512,26.150455243075893,20.99559019690564,74.45762580694549,0.017321623728461577
IT1,4,5,599,100.1669449081803,3,-16,False,,,43.84378078116181,50.0,1240.1050003245473,6.156219218838189,False,0,1,31,6,0,0,23.0,0.6166749618264268,51.89402012649512,26.150455243075893,1.3257385764807097,3.5764902132152114,5.9201319193105294e-05
IT1,4,6,329,182.370820668693,5,-19,False,,,87.06720173383901,64.0,2021.0750000551343,-23.067201733839013,False,0,1,32,6,0,0,23.0,0.6166749618264268,51.89402012649512,26.150455243075893,-7.28050412503157,-17.54998352058938,0.0012782266400454937
IT1,4,7,710,84.50704225352112,2,-19,False,,,31.580629700998873,36.0,3434.510000050068,4.419370299001127,False,0,1,33,6,0,0,23.0,0.6166749618264268,51.89402012649512,26.150455243075893,-6.260521754301713,-15.29047704234931,0.001566650625655603
IT1,4,6,599,100.1669449081803,3,-13,False,,,43.84378078116181,69.0,2590.3449999168515,25.15621921883819,False,0,1,34,6,0,0,23.0,0.6166749618264268,51.89402012649512,26.150455243075893,20.32573857648071,71.3874376224507,0.010138641308677136
IT1,4,4,1000,60.0,1,-16,False,,,6.875176187496734,41.0,14227.634999901056,34.124823812503266,False,0,1,35,6,0,0,23.0,0.6166749618264268,51.89402012649512,26.150455243075893,11.660655372992881,36.21696567666094,0.007982452362787253
IT1,4,6,710,84.50704225352112,2,-16,False,,,31.580629700998873,38.0,4810.575000010431,6.419370299001127,False,0,1,36,6,0,0,23.0,0.6166749618264268,51.89402012649512,26.150455243075893,-4.260521754301713,-10.678673965164517,0.000779830442684423
IT1,4,7,390,153.84615384615384,4,-13,False,,,74.79787473312055,62.0,3258.739999961108,-12.797874733120551,False,0,1,37,6,0,0,23.0,0.6166749618264268,51.89402012649512,26.150455243075893,-2.8635343931325536,-7.3092214426227144,1.8440202622048097e-05
IT1,4,2,843,71.17437722419929,1,-13,False,,,19.194949373496982,23.0,2938.9349999837577,3.805050626503018,False,0,1,38,6,0,0,23.0,0.6166749618264268,51.89402012649512,26.150455243075893,-12.782698173114042,-28.738912774880532,0.01088179267939157
IT1,4,3,599,100.1669449081803,3,-19,False,,,43.84378078116181,50.0,1975.205000024289,6.156219218838189,False,0,1,39,6,0,0,23.0,0.6166749618264268,51.89402012649512,26.150455243075893,1.3257385764807097,3.5764902132152114,5.9201319193105294e-05
IT1,4,5,918,65.359477124183,1,-13,False,,,13.046873249910696,50.0,1916.0199998877943,36.953126750089304,False,0,1,40,6,0,0,23.0,0.6166749618264268,51.89402012649512,26.150455243075893,17.432801616903298,58.73659101123801,0.01716278062833786
IT1,4,4,652,92.02453987730061,2,-13,False,,,37.727982709047225,50.0,2069.0750000067055,12.272017290952775,False,0,1,41,6,0,0,23.0,0.6166749618264268,51.89402012649512,26.150455243075893,4.524356651691164,12.741021066805207,0.0005317742680525931
IT1,4,7,550,109.0909090909091,3,-13,False,,,50.0,50.0,1509.2400000430644,0.0,False,0,1,42,6,0,0,23.0,0.6166749618264268,51.89402012649512,26.150455243075893,-1.8940201264951213,-4.896377934443467,3.587742903563351e-05
IT1,4,4,358,167.5977653631285,5,-19,False,,,80.97360155738828,60.0,3753.7249997258186,-20.973601557388278,False,0,1,43,6,0,0,23.0,0.6166749618264268,51.89402012649512,26.150455243075893,-8.093495751362084,-19.30771312805365,0.0016537250604232582
IT1,4,2,390,153.84615384615384,4,-16,False,,,74.79787473312055,64.0,2107.599999755621,-10.797874733120551,False,0,1,44,6,0,0,23.0,0.6166749618264268,51.89402012649512,26.150455243075893,-0.8635343931325536,-2.2628983982670463,7.788757871015783e-05
IT1,4,3,302,198.67549668874173,5,-19,False,,,93.24415345434716,79.0,9916.749999858439,-14.244153454347156,False,0,1,45,6,0,0,23.0,0.6166749618264268,51.89402012649512,26.150455243075893,4.488893884852658,12.635096501701263,0.005399327930325828
IT1,4,4,599,100.1669449081803,3,-16,False,,,43.84378078116181,47.0,3012.7449999563396,3.1562192188381886,False,0,1,46,6,0,0,23.0,0.6166749618264268,51.89402012649512,26.150455243075893,-1.6742614235192903,-4.340787405053985,4.8852150421590534e-05
IT1,4,5,425,141.1764705882353,4,-13,False,,,68.5984388693479,50.0,2264.685000292957,-18.598438869347902,False,0,1,47,6,0,0,23.0,0.6166749618264268,51.89402012649512,26.150455243075893,-11.621172991374422,-26.510837494797226,0.003270326322430903
IT1,4,2,504,119.04761904761905,3,-13,False,,,56.30039424560527,50.0,2223.964999895543,-6.300394245605268,False,0,1,48,6,0,0,23.0,0.6166749618264268,51.89402012649512,26.150455243075893,-5.18918368116379,-12.85049905265365,0.00041326352346026193
IT1,4,3,463,129.58963282937364,4,-13,False,,,62.42097125758927,81.0,4034.460000228137,18.579028742410728,False,0,1,49,6,0,0,23.0,0.6166749618264268,51.89402012649512,26.150455243075893,22.60969881456247,82.08354887528824,0.015996147845466296
IT1,4,5,302,198.67549668874173,5,-19,False,,,93.24415345434716,84.0,2643.894999753684,-9.244153454347156,False,0,1,50,6,0,0,23.0,0.6166749618264268,51.89402012649512,26.150455243075893,9.488893884852658,28.597063025597926,0.014443057639955988
IT1,4,6,425,141.1764705882353,4,-19,False,,,68.5984388693479,50.0,1716.1399996839464,-18.598438869347902,False,0,1,51,6,0,0,23.0,0.6166749618264268,51.89402012649512,26.150455243075893,-11.621172991374422,-26.510837494797226,0.003270326322430903
IT1,4,7,358,167.5977653631285,5,-13,False,,,80.97360155738828,72.0,2885.9049999155104,-8.973601557388278,False,0,1,52,6,0,0,23.0,0.6166749618264268,51.89402012649512,26.150455243075893,3.9065042486379156,10.909712310327023,0.002320608928520721
IT1,4,6,918,65.359477124183,1,-13,False,,,13.046873249910696,30.0,2492.5800003111362,16.953126750089304,False,0,1,53,6,0,0,23.0,0.6166749618264268,51.89402012649512,26.150455243075893,-2.5671983830967022,-6.5782945964038975,0.0012674245041951237
IT1,4,3,652,92.02453987730061,2,-16,False,,,37.727982709047225,25.0,2692.9600001312792,-12.727982709047225,False,0,1,54,6,0,0,23.0,0.6166749618264268,51.89402012649512,26.150455243075893,-20.475643348308836,-41.88404336990494,0.011767190585622547
IT1,4,7,1000,60.0,1,-16,False,,,6.875176187496734,36.0,3790.255000349134,29.124823812503266,False,0,1,55,6,0,0,23.0,0.6166749618264268,51.89402012649512,26.150455243075893,6.660655372992881,19.30918726429674,0.0018173583288665228
IT1,4,5,774,77.51937984496124,2,-19,False,,,25.354902613380577,50.0,2269.8300001211464,24.645097386619423,False,0,1,56,6,0,0,23.0,0.6166749618264268,51.89402012649512,26.150455243075893,10.995590196905638,33.836733597710484,0.004360476066293143
IT1,4,3,1000,60.0,1,-13,False,,,6.875176187496734,43.0,3492.214999627322,36.124823812503266,False,0,1,57,6,0,0,23.0,0.6166749618264268,51.89402012649512,26.150455243075893,13.660655372992881,43.63296566743486,0.011670525192751205
IT1,4,2,710,84.50704225352112,2,-16,False,,,31.580629700998873,50.0,1173.7899999134243,18.419370299001127,False,0,1,58,6,0,0,23.0,0.6166749618264268,51.89402012649512,26.150455243075893,7.739478245698287,22.770130302809356,0.0017646313511638695
IT1,4,4,390,153.84615384615384,4,-19,False,,,74.79787473312055,65.0,3578.220000024885,-9.797874733120551,False,0,1,59,6,0,0,23.0,0.6166749618264268,51.89402012649512,26.150455243075893,0.13646560686744635,0.36237240165948353,0.00023670418842713825
IT1,4,2,358,167.5977653631285,5,-19,False,,,80.97360155738828,57.0,6073.399999644607,-23.973601557388278,False,0,1,60,6,0,0,23.0,0.6166749618264268,51.89402012649512,26.150455243075893,-11.093495751362084,-25.47574639026497,0.003953353382706545
IT1,4,7,652,92.02453987730061,2,-16,False,,,37.727982709047225,46.0,4660.979999694973,8.272017290952775,False,0,2,61,6,0,0,23.0,0.6166749618264268,51.89402012649512,26.150455243075893,0.5243566516911642,1.3995697286793394,4.057505788769793e-06
IT1,4,6,390,153.84615384615384,4,-13,False,,,74.79787473312055,60.0,2710.1650000549853,-14.797874733120551,False,0,2,62,6,0,0,23.0,0.6166749618264268,51.89402012649512,26.150455243075893,-4.863534393132554,-12.094994748438324,0.0003032406176617398
IT1,4,2,550,109.0909090909091,3,-19,False,,,50.0,50.0,2955.689999740571,0.0,False,0,2,63,6,0,0,23.0,0.6166749618264268,51.89402012649512,26.150455243075893,-1.8940201264951213,-4.896377934443467,3.587742903563351e-05
IT1,4,4,774,77.51937984496124,2,-19,False,,,25.354902613380577,50.0,3325.4399998113513,24.645097386619423,False,0,2,64,6,0,0,23.0,0.6166749618264268,51.89402012649512,26.150455243075893,10.995590196905638,33.836733597710484,0.004360476066293143
IT1,4,5,504,119.04761904761905,3,-13,False,,,56.30039424560527,50.0,1296.5299999341369,-6.300394245605268,False,0,2,65,6,0,0,23.0,0.6166749618264268,51.89402012649512,26.150455243075893,-5.18918368116379,-12.85049905265365,0.00041326352346026193
IT1,4,4,918,65.359477124183,1,-13,False,,,13.046873249910696,50.0,1645.7599997520447,36.953126750089304,False,0,2,66,6,0,0,23.0,0.6166749618264268,51.89402012649512,26.150455243075893,17.432801616903298,58.73659101123801,0.01716278062833786
IT1,4,5,329,182.370820668693,5,-16,False,,,87.06720173383901,59.0,3748.575000092387,-28.067201733839013,False,0,2,67,6,0,0,23.0,0.6166749618264268,51.89402012649512,26.150455243075893,-12.28050412503157,-27.783999539113157,0.005988617888416103
IT1,4,3,390,153.84615384615384,4,-19,False,,,74.79787473312055,54.0,11631.100000347942,-20.79787473312055,False,0,2,68,6,0,0,23.0,0.6166749618264268,51.89402012649512,26.150455243075893,-10.863534393132554,-25.02010520217271,0.0032231286095476238
IT1,4,6,504,119.04761904761905,3,-19,False,,,56.30039424560527,53.0,2863.3549995720387,-3.3003942456052684,False,0,2,69,6,0,0,23.0,0.6166749618264268,51.89402012649512,26.150455243075893,-2.18918368116379,-5.637531534141911,3.185821351004626e-05
IT1,4,2,463,129.58963282937364,4,-19,False,,,62.42097125758927,55.0,4400.280000176281,-7.420971257589272,False,0,2,70,6,0,0,23.0,0.6166749618264268,51.89402012649512,26.150455243075893,-3.3903011854375293,-8.594427387897097,0.00010705388138221009
IT1,4,7,918,65.359477124183,1,-13,False,,,13.046873249910696,50.0,1784.684999845922,36.953126750089304,False,0,2,71,6,0,0,23.0,0.6166749618264268,51.89402012649512,26.150455243075893,17.432801616903298,58.73659101123801,0.01716278062833786
IT1,4,2,329,182.370820668693,5,-16,False,,,87.06720173383901,64.0,3395.0700000859797,-23.067201733839013,False,0,2,72,6,0,0,23.0,0.6166749618264268,51.89402012649512,26.150455243075893,-7.28050412503157,-17.54998352058938,0.0012782266400454937
IT1,4,6,843,71.17437722419929,1,-16,False,,,19.194949373496982,45.0,3216.200000140816,25.805050626503018,False,0,2,73,6,0,0,23.0,0.6166749618264268,51.89402012649512,26.150455243075893,9.217301826885958,27.674635933062714,0.003416932242274716
IT1,4,3,358,167.5977653631285,5,-16,False,,,80.97360155738828,61.0,2705.330000258982,-19.973601557388278,False,0,2,74,6,0,0,23.0,0.6166749618264268,51.89402012649512,26.150455243075893,-7.093495751362084,-17.140275164040396,0.0011064133342672871
IT1,4,5,652,92.02453987730061,2,-16,False,,,37.727982709047225,50.0,1875.9400001727045,12.272017290952775,False,0,2,75,6,0,0,23.0,0.6166749618264268,51.89402012649512,26.150455243075893,4.524356651691164,12.741021066805207,0.0005317742680525931
IT1,4,6,358,167.5977653631285,5,-16,False,,,80.97360155738828,59.0,3117.2650000080466,-21.973601557388278,False,0,2,76,6,0,0,23.0,0.6166749618264268,51.89402012649512,26.150455243075893,-9.093495751362084,-21.418455425539555,0.0023106523105484588
IT1,4,7,599,100.1669449081803,3,-16,False,,,43.84378078116181,50.0,3379.2849997989833,6.156219218838189,False,0,2,77,6,0,0,23.0,0.6166749618264268,51.89402012649512,26.150455243075893,1.3257385764807097,3.5764902132152114,5.9201319193105294e-05
IT1,4,3,918,65.359477124183,1,-19,False,,,13.046873249910696,50.0,1387.2799999080598,36.953126750089304,False,0,2,78,6,0,0,23.0,0.6166749618264268,51.89402012649512,26.150455243075893,17.432801616903298,58.73659101123801,0.01716278062833786
IT1,4,4,504,119.04761904761905,3,-19,False,,,56.30039424560527,50.0,1000.50999969244,-6.300394245605268,False,0,2,79,6,0,0,23.0,0.6166749618264268,51.89402012649512,26.150455243075893,-5.18918368116379,-12.85049905265365,0.00041326352346026193
IT1,4,5,463,129.58963282937364,4,-19,False,,,62.42097125758927,50.0,998.7200000323355,-12.420971257589272,False,0,2,80,6,0,0,23.0,0.6166749618264268,51.89402012649512,26.150455243075893,-8.39030118543753,-19.940041788449676,0.0013438614528997871
IT1,4,2,1000,60.0,1,-19,False,,,6.875176187496734,19.0,3369.5399998687208,12.124823812503266,False,0,2,81,6,0,0,23.0,0.6166749618264268,51.89402012649512,26.150455243075893,-10.339344627007119,-23.971045605997965,0.013501836537248721
IT1,4,3,504,119.04761904761905,3,-13,False,,,56.30039424560527,71.0,2228.6649998277426,14.699605754394732,False,0,2,82,6,0,0,23.0,0.6166749618264268,51.89402012649512,26.150455243075893,15.81081631883621,52.056722637753076,0.00680017067551782
IT1,4,4,463,129.58963282937364,4,-13,False,,,62.42097125758927,66.0,3445.07999997586,3.5790287424107277,False,0,2,83,6,0,0,23.0,0.6166749618264268,51.89402012649512,26.150455243075893,7.609698814562471,22.34853280093727,0.0022600311038595273
IT1,4,3,774,77.51937984496124,2,-19,False,,,25.354902613380577,17.0,1857.2149998508394,-8.354902613380577,False,0,2,84,6,0,0,23.0,0.6166749618264268,51.89402012649512,26.150455243075893,-22.00440980309436,-44.19192370359564,0.022611930108106713
IT1,4,7,329,182.370820668693,5,-16,False,,,87.06720173383901,17.0,3086.769999936223,-70.06720173383901,False,0,2,85,6,0,0,23.0,0.6166749618264268,51.89402012649512,26.150455243075893,-54.28050412503157,-76.27796240114078,0.18242348928536176
IT1,4,2,774,77.51937984496124,2,-13,False,,,25.354902613380577,11.0,2020.6699999980628,-14.354902613380577,False,0,2,86,6,0,0,23.0,0.6166749618264268,51.89402012649512,26.150455243075893,-28.00440980309436,-52.39766293627316,0.03599340552269357
IT1,4,5,843,71.17437722419929,1,-16,False,,,19.194949373496982,24.0,2943.334999959916,4.805050626503018,False,0,2,87,6,0,0,23.0,0.6166749618264268,51.89402012649512,26.150455243075893,-11.782698173114042,-26.824801875363043,0.00939293949599341
IT1,4,7,463,129.58963282937364,4,-19,False,,,62.42097125758927,50.0,1910.3500000201166,-12.420971257589272,False,0,2,88,6,0,0,23.0,0.6166749618264268,51.89402012649512,26.150455243075893,-8.39030118543753,-19.940041788449676,0.0013438614528997871
IT1,4,6,774,77.51937984496124,2,-13,False,,,25.354902613380577,50.0,3953.999999910593,24.645097386619423,False,0,2,89,6,0,0,23.0,0.6166749618264268,51.89402012649512,26.150455243075893,10.995590196905638,33.836733597710484,0.004360476066293143
IT1,4,4,329,182.370820668693,5,-13,False,,,87.06720173383901,66.0,3056.570000015199,-21.067201733839013,False,0,2,90,6,0,0,23.0,0.6166749618264268,51.89402012649512,26.150455243075893,-5.28050412503157,-13.06119375484155,0.0003647622322620192
IT1,8,4,425,141.1764705882353,4,-19,False,,,68.5984388693479,100.0,1505.170000018552,31.401561130652098,False,0,0,1,6,0,0,42.0,0.927233084677003,46.367057599264925,57.77717626758947,32.14163678360906,47.049650086900336,0.05460669799350564
IT1,8,3,329,182.370820668693,5,-13,False,,,87.06720173383901,100.0,1505.0200000405312,12.932798266160987,False,0,0,2,6,0,0,42.0,0.927233084677003,46.367057599264925,57.77717626758947,10.80017743428877,13.833729126094624,0.012149965405887572
IT1,8,7,1000,60.0,1,-16,False,,,6.875176187496734,0.0,1785.0350000080653,-6.875176187496734,False,0,0,3,6,0,0,42.0,0.927233084677003,46.367057599264925,57.77717626758947,3.4655533392098903,4.245228861569513,0.000332423441510059
IT1,8,3,504,119.04761904761905,3,-13,False,,,56.30039424560527,50.0,332.4150000116788,-6.300394245605268,False,0,0,4,6,0,0,42.0,0.927233084677003,46.367057599264925,57.77717626758947,-3.6474373769377593,-4.281438616907146,0.0008505147372265009
IT1,8,7,774,77.51937984496124,2,-13,False,,,25.354902613380577,0.0,1331.1049999902025,-25.354902613380577,False,0,0,5,6,0,0,42.0,0.927233084677003,46.367057599264925,57.77717626758947,-17.88857488249255,-19.314192861145195,0.026650478198854407
IT1,8,6,463,129.58963282937364,4,-13,False,,,62.42097125758927,100.0,6635.0600000005215,37.57902874241073,False,0,0,6,6,0,0,42.0,0.927233084677003,46.367057599264925,57.77717626758947,39.27996948544712,60.19761880055262,0.06660291292584537
IT1,8,2,504,119.04761904761905,3,-13,False,,,56.30039424560527,50.0,567.1549999970011,-6.300394245605268,False,0,0,7,6,0,0,42.0,0.927233084677003,46.367057599264925,57.77717626758947,-3.6474373769377593,-4.281438616907146,0.0008505147372265009
IT1,8,4,329,182.370820668693,5,-16,False,,,87.06720173383901,100.0,1490.8350000041537,12.932798266160987,False,0,0,8,6,0,0,42.0,0.927233084677003,46.367057599264925,57.77717626758947,10.80017743428877,13.833729126094624,0.01214996540588756
IT1,8,7,463,129.58963282937364,4,-16,False,,,62.42097125758927,50.0,2947.0149999833666,-12.420971257589272,False,0,0,9,6,0,0,42.0,0.927233084677003,46.367057599264925,57.77717626758947,-10.720030514552882,-12.068067618309533,0.006106411609414445
IT1,8,4,550,109.0909090909091,3,-16,False,,,50.0,50.0,194.99499996891245,0.0,False,0,0,10,6,0,0,42.0,0.927233084677003,46.367057599264925,57.77717626758947,3.6329424007350752,4.454779287105297,0.00023157553968524916
IT1,8,7,329,182.370820668693,5,-13,False,,,87.06720173383901,100.0,1897.274999995716,12.932798266160987,False,0,0,11,6,0,0,42.0,0.927233084677003,46.367057599264925,57.77717626758947,10.80017743428877,13.833729126094624,0.01214996540588756
IT1,8,3,425,141.1764705882353,4,-19,False,,,68.5984388693479,75.0,1499.3050000048243,6.401561130652098,False,0,0,12,6,0,0,42.0,0.927233084677003,46.367057599264925,57.77717626758947,7.141636783609059,8.945494848079681,0.0022438041158637906
IT1,8,2,774,77.51937984496124,2,-13,False,,,25.354902613380577,0.0,2158.980000007432,-25.354902613380577,False,0,0,13,6,0,0,42.0,0.927233084677003,46.367057599264925,57.77717626758947,-17.88857488249255,-19.314192861145195,0.026650478198854407
IT1,8,6,329,182.370820668693,5,-16,False,,,87.06720173383901,82.0,1603.1099999672733,-5.067201733839013,False,0,0,14,6,0,0,42.0,0.927233084677003,46.367057599264925,57.77717626758947,-7.19982256571123,-8.275032777811576,0.006608778206192081
IT1,8,4,652,92.02453987730061,2,-13,False,,,37.727982709047225,26.0,2052.540000004228,-11.727982709047225,False,0,0,15,6,0,0,42.0,0.927233084677003,46.367057599264925,57.77717626758947,-6.186207475699234,-7.152825658246723,0.00257542800048086
IT1,8,7,550,109.0909090909091,3,-16,False,,,50.0,37.0,2135.000000009313,-13.0,False,0,0,16,6,0,0,42.0,0.927233084677003,46.367057599264925,57.77717626758947,-9.367057599264925,-10.629155541015516,0.004084772416606006
IT1,8,4,1000,60.0,1,-19,False,,,6.875176187496734,0.0,3873.1100000441074,-6.875176187496734,False,0,0,17,6,0,0,42.0,0.927233084677003,46.367057599264925,57.77717626758947,3.4655533392098903,4.245228861569513,0.000332423441510059
IT1,8,6,599,100.1669449081803,3,-13,False,,,43.84378078116181,32.0,1735.240000009071,-11.843780781161811,False,0,0,18,6,0,0,42.0,0.927233084677003,46.367057599264925,57.77717626758947,-7.253278340290208,-8.33383748481643,0.002826945332986865
IT1,8,2,1000,60.0,1,-13,False,,,6.875176187496734,0.0,1584.999999962747,-6.875176187496734,False,0,0,19,6,0,0,42.0,0.927233084677003,46.367057599264925,57.77717626758947,3.4655533392098903,4.245228861569513,0.000332423441510059
IT1,8,6,774,77.51937984496124,2,-13,False,,,25.354902613380577,28.0,2317.0300000347197,2.6450973866194225,False,0,0,20,6,0,0,42.0,0.927233084677003,46.367057599264925,57.77717626758947,10.111425117507451,12.8970083454559,0.0050950423411781215
IT1,8,3,843,71.17437722419929,1,-19,False,,,19.194949373496982,0.0,1338.770000031218,-19.194949373496982,False,0,0,21,6,0,0,42.0,0.927233084677003,46.367057599264925,57.77717626758947,-10.770480799675283,-12.121272069696902,0.01391813318495672
IT1,8,5,652,92.02453987730061,2,-16,False,,,37.727982709047225,38.0,1412.7900000312366,0.2720172909527747,False,0,0,22,6,0,0,42.0,0.927233084677003,46.367057599264925,57.77717626758947,5.813792524300766,7.223741259710129,0.0008957817313393335
IT1,8,6,843,71.17437722419929,1,-19,False,,,19.194949373496982,31.0,1771.2099999771453,11.805050626503018,False,0,0,23,6,0,0,42.0,0.927233084677003,46.367057599264925,57.77717626758947,20.229519200324717,27.467542812368446,0.030660755564887895
IT1,8,5,504,119.04761904761905,3,-19,False,,,56.30039424560527,66.0,1347.1900000004098,9.699605754394732,False,0,0,24,6,0,0,42.0,0.927233084677003,46.367057599264925,57.77717626758947,12.35256262306224,15.973611927976691,0.005028504681899495
IT1,8,3,710,84.50704225352112,2,-16,False,,,31.580629700998873,34.0,2073.1200000154786,2.4193702990011268,False,0,0,25,6,0,0,42.0,0.927233084677003,46.367057599264925,57.77717626758947,8.917326490802878,11.291233114198834,0.003069950679277196
