subject,pitch,ioi,tempo,loudness,tap_condition,key_press,tap_times,true_score,response,rt,error,tapped,tap_type,block,trial,test_correct,test_incorrect,test_skipped,extreme_responses,pearsonr,intercept,slope,residual,cooks
1,5,710,2,-16,True,,,31.58063,24.0,3452.564999985043,-7.580629999999999,False,1,0,1,6,0,0,29.0,0.9229684665821254,357.41814585305167,-48.536012220606565,-14.766365035895177,0.03326126820017067
1,6,1000,1,-16,True,,,6.87518,19.0,9667.070000024978,12.12482,False,1,0,2,6,0,0,29.0,0.9229684665821254,357.41814585305167,-48.536012220606565,-3.1432512154151624,0.004070705681068167
1,3,463,4,-16,True,,,62.42097,50.0,4216.755000001285,-12.420969999999997,False,1,0,3,6,0,0,29.0,0.9229684665821254,357.41814585305167,-48.536012220606565,-9.51735054917468,0.012392890563626083
1,7,329,5,-19,True,,,87.0672,74.0,3767.7350000012666,-13.0672,False,1,0,4,6,0,0,29.0,0.9229684665821254,357.41814585305167,-48.536012220606565,-2.100616030562179,0.0028552514821984514
1,4,1000,1,-13,True,,,6.87518,24.0,3347.1649999846704,17.12482,False,1,0,5,6,0,0,29.0,0.9229684665821254,357.41814585305167,-48.536012220606565,1.8567487845848376,0.0010483675405955025
1,5,329,5,-13,True,,,87.0672,79.0,4055.6499999947846,-8.0672,False,1,0,6,6,0,0,29.0,0.9229684665821254,357.41814585305167,-48.536012220606565,2.899383969437821,0.0010424028758808648
1,7,652,2,-13,True,,,37.72798,50.0,763.1050000200048,12.272019999999998,False,1,0,7,6,0,0,29.0,0.9229684665821254,357.41814585305167,-48.536012220606565,7.097376194695485,0.005111360206651757
1,4,358,5,-13,True,,,80.9736,70.0,4475.894999981392,-10.973600000000005,False,1,0,8,6,0,0,29.0,0.9229684665821254,357.41814585305167,-48.536012220606565,-2.00052496142726,0.0020255708686632216
1,5,918,1,-16,True,,,13.04687,28.0,2653.280000027735,14.95313,False,1,0,9,6,0,0,29.0,0.9229684665821254,357.41814585305167,-48.536012220606565,1.7041100694946891,0.000631996429713312
1,6,302,5,-13,True,,,93.24415,72.0,2944.344999967143,-21.244150000000005,False,1,0,10,6,0,0,29.0,0.9229684665821254,357.41814585305167,-48.536012220606565,-8.256790352863092,0.03224420243134126
1,2,390,4,-16,True,,,74.79787,61.0,2813.6499999673106,-13.797870000000003,False,1,0,11,6,0,0,29.0,0.9229684665821254,357.41814585305167,-48.536012220606565,-6.845174813012136,0.010906632501901985
1,4,774,2,-19,True,,,25.3549,25.0,1978.0749999918044,-0.35490000000000066,False,1,0,12,6,0,0,29.0,0.9229684665821254,357.41814585305167,-48.536012220606565,-9.577372110257755,0.018030550984496928
1,2,358,5,-16,True,,,80.9736,67.0,2741.6599999996834,-13.973600000000005,False,1,0,13,6,0,0,29.0,0.9229684665821254,357.41814585305167,-48.536012220606565,-5.00052496142726,0.008232714327699233
1,6,463,4,-19,True,,,62.42097,50.0,1036.0299999592826,-12.420969999999997,False,1,0,14,6,0,0,29.0,0.9229684665821254,357.41814585305167,-48.536012220606565,-9.51735054917468,0.012392890563626083
1,2,550,3,-13,True,,,50.0,50.0,2058.1149999634363,0.0,False,1,0,15,6,0,0,29.0,0.9229684665821254,357.41814585305167,-48.536012220606565,-1.1598751900207418,0.000307020427360568
1,5,425,4,-19,True,,,68.59844,62.0,3365.029999986291,-6.5984399999999965,False,1,0,16,6,0,0,29.0,0.9229684665821254,357.41814585305167,-48.536012220606565,-1.6738719899355274,0.000898305692736713
1,3,599,3,-16,True,,,43.84378,37.0,2162.1950000408106,-6.843780000000002,False,1,0,17,6,0,0,29.0,0.9229684665821254,357.41814585305167,-48.536012220606565,-10.01765077294435,0.011367042527975118
1,7,1000,1,-19,True,,,6.87518,23.0,2277.044999995269,16.12482,False,1,0,18,6,0,0,29.0,0.9229684665821254,357.41814585305167,-48.536012220606565,0.8567487845848376,0.0001727223365160234
1,4,463,4,-16,True,,,62.42097,62.0,2148.6300000105985,-0.42096999999999696,False,1,0,19,6,0,0,29.0,0.9229684665821254,357.41814585305167,-48.536012220606565,2.4826494508253205,0.00034950871370587283
1,6,710,2,-13,True,,,31.58063,28.0,2851.635000028182,-3.5806299999999993,False,1,0,20,6,0,0,29.0,0.9229684665821254,357.41814585305167,-48.536012220606565,-10.766365035895177,0.018058321124198466
1,7,425,4,-19,True,,,68.59844,63.0,1792.284999974072,-5.5984399999999965,False,1,0,21,6,0,0,29.0,0.9229684665821254,357.41814585305167,-48.536012220606565,-0.6738719899355274,0.00032269445150003994
1,6,550,3,-19,True,,,50.0,50.0,455.66500001586974,0.0,False,1,0,22,6,0,0,29.0,0.9229684665821254,357.41814585305167,-48.536012220606565,-1.1598751900207418,0.000307020427360568
1,3,774,2,-19,True,,,25.3549,21.0,2256.6149999620393,-4.354900000000001,False,1,0,23,6,0,0,29.0,0.9229684665821254,357.41814585305167,-48.536012220606565,-13.577372110257755,0.03545147734123805
1,2,1000,1,-19,True,,,6.87518,20.0,3593.429999949876,13.12482,False,1,0,24,6,0,0,29.0,0.9229684665821254,357.41814585305167,-48.536012220606565,-2.1432512154151624,0.001986125220799622
1,5,550,3,-19,True,,,50.0,50.0,559.8400000017136,0.0,False,1,0,25,6,0,0,29.0,0.9229684665821254,357.41814585305167,-48.536012220606565,-1.1598751900207418,0.000307020427360568
1,3,843,1,-13,True,,,19.19495,22.0,2395.235000003595,2.8050500000000014,False,1,0,26,6,0,0,29.0,0.9229684665821254,357.41814585305167,-48.536012220606565,-8.432635249650978,0.017708103701391687
1,4,504,3,-13,True,,,56.30039,50.0,561.8150000227615,-6.30039,False,1,0,27,6,0,0,29.0,0.9229684665821254,357.41814585305167,-48.536012220606565,-5.399108062283318,0.0037694413194855163
1,3,329,5,-19,True,,,87.0672,74.0,2057.2599999723025,-13.0672,False,1,0,28,6,0,0,29.0,0.9229684665821254,357.41814585305167,-48.536012220606565,-2.100616030562179,0.0028552514821984514
1,7,599,3,-16,True,,,43.84378,50.0,627.4099999573082,6.156219999999998,False,1,0,29,6,0,0,29.0,0.9229684665821254,357.41814585305167,-48.536012220606565,2.98234922705565,0.0005949311876177531
1,2,774,2,-19,True,,,25.3549,27.0,2701.3799999840558,1.6450999999999993,False,1,0,30,6,0,0,29.0,0.9229684665821254,357.41814585305167,-48.536012220606565,-7.577372110257755,0.011507714778173698
1,2,425,4,-13,True,"[74, 74, 74, 74, 74]","[368, 736, 1056, 1440, 1883]",68.59844,70.0,2819.4950000033714,1.4015600000000035,True,2,1,31,6,0,0,29.0,0.9229684665821254,357.41814585305167,-48.536012220606565,6.326128010064473,0.004368238706424125
1,5,504,3,-13,True,"[74, 74, 74, 74]","[293, 640, 1163, 1685]",56.30039,50.0,1083.1449999823235,-6.30039,True,2,1,32,6,0,0,29.0,0.9229684665821254,357.41814585305167,-48.536012220606565,-5.399108062283318,0.0037694413194855163
1,3,1000,1,-19,True,"[74, 74, 74]","[576, 2133, 3173]",6.87518,22.0,2109.295000031125,15.12482,True,2,1,33,6,0,0,29.0,0.9229684665821254,357.41814585305167,-48.536012220606565,-0.1432512154151624,3.7133548523550384e-05
1,7,710,2,-19,True,"[74, 74, 74, 74]","[347, 949, 1643, 2325]",31.58063,50.0,1188.1050000083633,18.41937,True,2,1,34,6,0,0,29.0,0.9229684665821254,357.41814585305167,-48.536012220606565,11.233634964104823,0.016794558017079384
1,6,918,1,-19,True,"[74, 74, 74, 74, 74]","[21, 731, 2016, 2859, 3787]",13.04687,23.0,2934.064999979455,9.95313,True,2,1,35,6,0,0,29.0,0.9229684665821254,357.41814585305167,-48.536012220606565,-3.295889930505311,0.0036745980887578278
1,3,652,2,-16,True,"[74, 74, 74, 74, 74]","[352, 1013, 1531, 2149, 2805]",37.72798,50.0,1204.729999997653,12.272019999999998,True,2,1,36,6,0,0,29.0,0.9229684665821254,357.41814585305167,-48.536012220606565,7.097376194695485,0.005111360206651757
1,6,390,4,-16,True,"[74, 74, 74, 74, 74, 74]","[341, 747, 917, 1077, 1280, 1483]",74.79787,85.0,3616.120000020601,10.202129999999997,True,2,1,37,6,0,0,29.0,0.9229684665821254,357.41814585305167,-48.536012220606565,17.154825186987864,0.048273242160880594
1,7,843,1,-13,True,"[74, 74, 74, 74]","[171, 677, 1845, 2731]",19.19495,26.0,2495.5099999788217,6.805050000000001,True,2,1,38,6,0,0,29.0,0.9229684665821254,357.41814585305167,-48.536012220606565,-4.432635249650978,0.005204013322315514
1,5,463,4,-13,True,"[74, 74, 74, 74, 74]","[336, 725, 1136, 1568, 2043]",62.42097,74.0,3059.659999969881,11.579030000000003,True,2,1,39,6,0,0,29.0,0.9229684665821254,357.41814585305167,-48.536012220606565,14.48264945082532,0.022115754055715905
1,6,652,2,-16,True,"[74, 74, 74, 74, 74]","[368, 720, 1541, 2091, 2736]",37.72798,50.0,1495.4849999630824,12.272019999999998,True,2,1,40,6,0,0,29.0,0.9229684665821254,357.41814585305167,-48.536012220606565,7.097376194695485,0.005111360206651757
1,7,463,4,-16,True,"[74, 74, 74, 74, 74]","[341, 736, 1077, 1509, 1979]",62.42097,67.0,2821.5450000134297,4.579030000000003,True,2,1,41,6,0,0,29.0,0.9229684665821254,357.41814585305167,-48.536012220606565,7.4826494508253205,0.0053099687460796425
1,6,358,5,-19,True,"[74, 74, 74, 74, 74]","[213, 715, 907, 1205, 1515]",80.9736,81.0,3263.570000010077,0.026399999999995316,True,2,1,42,6,0,0,29.0,0.9229684665821254,357.41814585305167,-48.536012220606565,8.99947503857274,0.015046176653863754
1,4,652,2,-13,True,"[74, 74, 74, 74, 74]","[352, 997, 1536, 2139, 2789]",37.72798,29.0,3978.899999987334,-8.727980000000002,True,2,1,43,6,0,0,29.0,0.9229684665821254,357.41814585305167,-48.536012220606565,-13.902623805304515,0.024335507174012592
1,7,358,5,-16,True,"[74, 74, 74, 74, 74, 74]","[357, 715, 901, 1120, 1365, 1589]",80.9736,83.0,3257.8799999901094,2.0263999999999953,True,2,1,44,6,0,0,29.0,0.9229684665821254,357.41814585305167,-48.536012220606565,10.99947503857274,0.02345436099690874
1,4,843,1,-16,True,"[74, 74, 74, 74, 74, 74]","[363, 704, 1109, 1893, 2715, 3477]",19.19495,23.0,2401.2999999686144,3.8050500000000014,True,2,1,45,6,0,0,29.0,0.9229684665821254,357.41814585305167,-48.536012220606565,-7.432635249650978,0.013885926497681991
1,2,302,5,-13,True,"[74, 74, 74, 74, 74]","[373, 667, 853, 1056, 1312]",93.24415,78.0,3215.550000022631,-15.244150000000005,True,2,1,46,6,0,0,29.0,0.9229684665821254,357.41814585305167,-48.536012220606565,-2.256790352863092,0.004119957481838395
1,3,504,3,-13,True,"[74, 74, 74, 74, 74]","[352, 693, 1184, 1701, 2197]",56.30039,70.0,3130.6850000401028,13.69961,True,2,1,47,6,0,0,29.0,0.9229684665821254,357.41814585305167,-48.536012220606565,14.600891937716682,0.019646708742441323
1,4,302,5,-19,True,"[74, 74, 74, 74, 74]","[363, 699, 949, 1173, 1392]",93.24415,100.0,3513.1099999998696,6.755849999999995,True,2,1,48,6,0,0,29.0,0.9229684665821254,357.41814585305167,-48.536012220606565,19.743209647136908,0.12878941216751716
1,7,504,3,-19,True,"[74, 74, 74, 74, 74]","[480, 741, 1109, 1600, 2075]",56.30039,50.0,552.350000012666,-6.30039,True,2,1,49,6,0,0,29.0,0.9229684665821254,357.41814585305167,-48.536012220606565,-5.399108062283318,0.0037694413194855163
1,5,652,2,-13,True,"[74, 74, 74, 74, 74]","[347, 672, 1552, 2149, 2784]",37.72798,31.0,3972.829999984242,-6.727980000000002,True,2,1,50,6,0,0,29.0,0.9229684665821254,357.41814585305167,-48.536012220606565,-11.902623805304515,0.018045219701803738
1,3,302,5,-16,True,"[74, 74, 74, 74, 74]","[368, 688, 880, 1051, 1237]",93.24415,81.0,3729.9300000304356,-12.244150000000005,True,2,1,51,6,0,0,29.0,0.9229684665821254,357.41814585305167,-48.536012220606565,0.7432096471369078,4.221086181766183e-05
1,4,599,3,-19,True,"[74, 74, 74, 74, 74]","[379, 629, 1339, 1936, 2432]",43.84378,50.0,857.2549999807961,6.156219999999998,True,2,1,52,6,0,0,29.0,0.9229684665821254,357.41814585305167,-48.536012220606565,2.98234922705565,0.0005949311876177531
1,3,390,4,-13,True,"[74, 74, 74, 74, 74]","[341, 704, 965, 1349, 1701]",74.79787,70.0,3032.1149999508634,-4.797870000000003,True,2,1,53,6,0,0,29.0,0.9229684665821254,357.41814585305167,-48.536012220606565,2.154825186987864,0.00029309891323155764
1,2,918,1,-13,True,"[74, 74, 74, 74, 74, 74]","[384, 725, 1360, 2101, 2949, 3835]",13.04687,21.0,3785.845000005793,7.95313,True,2,1,54,6,0,0,29.0,0.9229684665821254,357.41814585305167,-48.536012220606565,-5.295889930505311,0.009010122342275556
1,4,425,4,-19,True,"[74, 74, 74, 74, 74]","[405, 784, 1024, 1339, 1760]",68.59844,77.0,3460.7649999670684,8.401560000000003,True,2,1,55,6,0,0,29.0,0.9229684665821254,357.41814585305167,-48.536012220606565,13.326128010064473,0.0225447231126146
1,2,599,3,-19,True,"[74, 74, 74, 74, 74]","[363, 949, 1429, 2000, 2576]",43.84378,50.0,925.7249999791384,6.156219999999998,True,2,1,56,6,0,0,29.0,0.9229684665821254,357.41814585305167,-48.536012220606565,2.98234922705565,0.0005949311876177531
1,5,843,1,-13,True,"[74, 74, 74, 74, 74, 74]","[352, 688, 1157, 1883, 2741, 3531]",19.19495,33.0,4106.704999983776,13.805050000000001,True,2,1,57,6,0,0,29.0,0.9229684665821254,357.41814585305167,-48.536012220606565,2.5673647503490216,0.0011898234550756534
1,2,710,2,-13,True,"[74, 74, 74, 74]","[384, 773, 1669, 2357]",31.58063,50.0,1243.6700000544079,18.41937,True,2,1,58,6,0,0,29.0,0.9229684665821254,357.41814585305167,-48.536012220606565,11.233634964104823,0.016794558017079384
1,5,302,5,-19,True,"[74, 74, 74, 74, 74]","[352, 736, 928, 1136, 1376]",93.24415,85.0,2791.650000028312,-8.244150000000005,True,2,1,59,6,0,0,29.0,0.9229684665821254,357.41814585305167,-48.536012220606565,4.743209647136908,0.004959382921510744
1,6,504,3,-16,True,"[74, 74, 74, 74]","[549, 1168, 1648, 2107]",56.30039,50.0,599.4350000401028,-6.30039,True,2,1,60,6,0,0,29.0,0.9229684665821254,357.41814585305167,-48.536012220606565,-5.399108062283318,0.0037694413194855163
1,5,390,4,-16,True,"[74, 74, 74, 74, 74]","[341, 741, 992, 1333, 1701]",74.79787,64.0,2563.854999956675,-10.797870000000003,True,2,2,61,6,0,0,29.0,0.9229684665821254,357.41814585305167,-48.536012220606565,-3.845174813012136,0.004085319677573521
1,4,918,1,-19,True,"[74, 74, 74, 74, 74, 74]","[357, 683, 1253, 1904, 2837, 3621]",13.04687,37.0,3981.339999998454,23.95313,True,2,2,62,6,0,0,29.0,0.9229684665821254,357.41814585305167,-48.536012220606565,10.70411006949469,0.03222166575253245
1,6,329,5,-16,True,"[74, 74, 74, 74, 74]","[357, 693, 901, 1125, 1403]",87.0672,73.0,4858.570000040345,-14.0672,True,2,2,63,6,0,0,29.0,0.9229684665821254,357.41814585305167,-48.536012220606565,-3.100616030562179,0.004981355267217226
1,2,843,1,-16,True,"[74, 74, 74, 74, 74, 74]","[357, 736, 1147, 1680, 2629, 3387]",19.19495,50.0,1536.7649999679998,30.80505,True,2,2,64,6,0,0,29.0,0.9229684665821254,357.41814585305167,-48.536012220606565,19.56736475034902,0.08611810345056489
1,7,302,5,-13,True,"[74, 74, 74, 74]","[635, 864, 1115, 1392]",93.24415,73.0,2283.3899999968708,-20.244150000000005,True,2,2,65,6,0,0,29.0,0.9229684665821254,357.41814585305167,-48.536012220606565,-7.256790352863092,0.02570786978147399
1,5,599,3,-16,True,"[74, 74, 74, 74, 74]","[368, 800, 1376, 1925, 2555]",43.84378,50.0,545.990000013262,6.156219999999998,True,2,2,66,6,0,0,29.0,0.9229684665821254,357.41814585305167,-48.536012220606565,2.98234922705565,0.0005949311876177531
1,4,710,2,-16,True,"[74, 74, 74, 74, 74]","[341, 885, 1611, 2272, 2987]",31.58063,50.0,966.199999966193,18.41937,True,2,2,67,6,0,0,29.0,0.9229684665821254,357.41814585305167,-48.536012220606565,11.233634964104823,0.016794558017079384
1,2,463,4,-19,True,"[74, 74, 74, 74, 74]","[293, 741, 1099, 1547, 1947]",62.42097,62.0,1745.9749999688938,-0.42096999999999696,True,2,2,68,6,0,0,29.0,0.9229684665821254,357.41814585305167,-48.536012220606565,2.4826494508253205,0.00034950871370587283
1,6,843,1,-13,True,"[74, 74, 74, 74, 74]","[363, 725, 1957, 2720, 3456]",19.19495,28.0,2033.5750000085682,8.805050000000001,True,2,2,69,6,0,0,29.0,0.9229684665821254,357.41814585305167,-48.536012220606565,-2.4326352496509784,0.001736586568540041
1,3,425,4,-19,True,"[74, 74, 74, 74, 74]","[373, 757, 1056, 1435, 1835]",68.59844,72.0,2506.969999987632,3.4015600000000035,True,2,2,70,6,0,0,29.0,0.9229684665821254,357.41814585305167,-48.536012220606565,8.326128010064473,0.008119587296839119
1,7,918,1,-16,True,"[74, 74, 74, 74, 74, 74]","[352, 715, 1205, 1888, 2805, 3520]",13.04687,29.0,2793.665000004694,15.95313,True,2,2,71,6,0,0,29.0,0.9229684665821254,357.41814585305167,-48.536012220606565,2.704110069494689,0.001788540493575803
1,6,425,4,-13,True,"[74, 74, 74, 74]","[363, 752, 1083, 1493]",68.59844,64.0,16856.465000018943,-4.5984399999999965,True,2,2,72,6,0,0,29.0,0.9229684665821254,357.41814585305167,-48.536012220606565,0.32612801006447256,3.5469743962681135e-05
1,5,358,5,-16,True,"[74, 74, 74, 74, 74]","[16, 613, 923, 1264, 1557]",80.9736,72.0,52948.94500001101,-8.973600000000005,True,2,2,73,6,0,0,29.0,0.9229684665821254,357.41814585305167,-48.536012220606565,-0.0005249614272599956,0.0002108604112322377
1,4,390,4,-13,True,"[74, 74, 74, 74, 74]","[373, 688, 1003, 1349, 1717]",74.79787,69.0,3739.515000022948,-5.797870000000003,True,2,2,74,6,0,0,29.0,0.9229684665821254,357.41814585305167,-48.536012220606565,1.154825186987864,1.3061180963092058e-05
1,2,329,5,-19,True,"[74, 74, 74, 74, 74]","[368, 715, 955, 1205, 1493]",87.0672,72.0,1848.5750000108965,-15.0672,True,2,2,75,6,0,0,29.0,0.9229684665821254,357.41814585305167,-48.536012220606565,-4.100616030562179,0.007695303740154421
1,3,710,2,-13,True,"[74, 74, 74, 74]","[571, 1573, 2267, 2917]",31.58063,39.0,3704.5949999592267,7.419370000000001,True,2,2,76,6,0,0,29.0,0.9229684665821254,357.41814585305167,-48.536012220606565,0.23363496410482298,5.7298799075512576e-06
1,2,504,3,-16,True,"[74, 74, 74, 74, 74]","[363, 779, 1264, 1728, 2192]",56.30039,50.0,762.4950000317767,-6.30039,True,2,2,77,6,0,0,29.0,0.9229684665821254,357.41814585305167,-48.536012220606565,-5.399108062283318,0.0037694413194855163
1,7,774,2,-16,True,"[74, 74, 74, 74, 74]","[379, 752, 1776, 2485, 3221]",25.3549,35.0,1571.2350000394508,9.6451,True,2,2,78,6,0,0,29.0,0.9229684665821254,357.41814585305167,-48.536012220606565,0.42262788974224463,5.497665295392794e-07
1,3,550,3,-19,True,"[74, 74, 74, 74, 74]","[368, 736, 1328, 1845, 2389]",50.0,50.0,567.5099999643862,0.0,True,2,2,79,6,0,0,29.0,0.9229684665821254,357.41814585305167,-48.536012220606565,-1.1598751900207418,0.000307020427360568
1,5,1000,1,-19,True,"[74, 74, 74, 74, 74]","[384, 763, 1349, 2059, 3099]",6.87518,25.0,2036.9100000243634,18.12482,True,2,2,80,6,0,0,29.0,0.9229684665821254,357.41814585305167,-48.536012220606565,2.8567487845848376,0.0026640691607619873
1,6,774,2,-19,True,"[74, 74, 74, 74]","[395, 768, 1616, 2459]",25.3549,50.0,447.87999999243766,24.6451,True,2,2,81,6,0,0,29.0,0.9229684665821254,357.41814585305167,-48.536012220606565,15.422627889742245,0.041318890816057136
1,7,390,4,-13,True,"[74, 74, 74, 74]","[667, 1003, 1349, 1664]",74.79787,65.0,2250.5499999970198,-9.797870000000003,True,2,2,82,6,0,0,29.0,0.9229684665821254,357.41814585305167,-48.536012220606565,-2.845174813012136,0.0025412083571910676
1,4,329,5,-16,True,"[74, 74, 74, 74, 74]","[53, 624, 896, 1179, 1472]",87.0672,78.0,2479.425000026822,-9.0672,True,2,2,83,6,0,0,29.0,0.9229684665821254,357.41814585305167,-48.536012220606565,1.899383969437821,0.0002292832213075439
1,7,550,3,-13,True,"[74, 74, 74, 74, 74]","[96, 571, 1221, 1813, 2336]",50.0,50.0,550.9999999776483,0.0,True,2,2,84,6,0,0,29.0,0.9229684665821254,357.41814585305167,-48.536012220606565,-1.1598751900207418,0.000307020427360568
1,3,918,1,-16,True,"[74, 74, 74, 74, 74]","[43, 635, 1984, 2816, 3781]",13.04687,26.0,2292.9150000563823,12.95313,True,2,2,85,6,0,0,29.0,0.9229684665821254,357.41814585305167,-48.536012220606565,-0.29588993050531087,8.397269765972466e-05
1,6,599,3,-13,True,"[74, 74, 74, 74, 74]","[336, 811, 1387, 1899, 2555]",43.84378,50.0,663.4249999769963,6.156219999999998,True,2,2,86,6,0,0,29.0,0.9229684665821254,357.41814585305167,-48.536012220606565,2.98234922705565,0.0005949311876177531
1,5,774,2,-19,True,"[74, 74, 74, 74, 74]","[16, 613, 1147, 1749, 2443]",25.3549,50.0,8067.049999954179,24.6451,True,2,2,87,6,0,0,29.0,0.9229684665821254,357.41814585305167,-48.536012220606565,15.422627889742245,0.041318890816057136
1,3,358,5,-13,True,"[74, 74, 74, 74, 74]","[64, 592, 912, 1237, 1557]",80.9736,71.0,2041.7349999770522,-9.973600000000005,True,2,2,88,6,0,0,29.0,0.9229684665821254,357.41814585305167,-48.536012220606565,-1.00052496142726,0.0008858771217550938
1,2,652,2,-16,True,"[74, 74, 74, 74, 74]","[43, 603, 1381, 2075, 2699]",37.72798,50.0,1539.4450000021607,12.272019999999998,True,2,2,89,6,0,0,29.0,0.9229684665821254,357.41814585305167,-48.536012220606565,7.097376194695485,0.005111360206651757
1,4,550,3,-16,True,"[74, 74, 74, 74]","[608, 1200, 1728, 2165]",50.0,50.0,494.38999994890764,0.0,True,2,2,90,6,0,0,29.0,0.9229684665821254,357.41814585305167,-48.536012220606565,-1.1598751900207418,0.000307020427360568
2,3,550,3,-16,True,"[74, 74, 74, 74]","[772, 1329, 1852, 2397]",50.0,50.0,1337.5749999831896,0.0,True,2,0,1,6,0,0,31.0,0.9028819707517066,533.8591138859481,-76.99252673850833,1.9574378682094107,0.00013605910498843522
2,4,652,2,-16,True,"[74, 74, 74, 74]","[401, 755, 1503, 2194]",37.72798,24.0,5710.5000000156,-13.727980000000002,True,2,0,2,6,0,0,31.0,0.9028819707517066,533.8591138859481,-76.99252673850833,-10.94410968508474,0.004924299547147455
2,2,843,1,-19,True,"[74, 74, 74, 74, 74]","[354, 755, 1933, 2705, 3541]",19.19495,0.0,6199.83999998658,-19.19495,True,2,0,3,6,0,0,31.0,0.9028819707517066,533.8591138859481,-76.99252673850833,-15.163005235543102,0.01982452350737323
2,3,652,2,-19,True,"[74, 74, 74, 74]","[418, 877, 1573, 2194]",37.72798,37.0,2412.2499999939464,-0.7279800000000023,True,2,0,4,6,0,0,31.0,0.9028819707517066,533.8591138859481,-76.99252673850833,2.05589031491526,0.00012404638342457467
2,7,358,5,-13,True,"[74, 74, 74, 74]","[395, 789, 1115, 1498]",80.9736,75.0,8574.280000000726,-5.973600000000005,True,2,0,5,6,0,0,31.0,0.9028819707517066,533.8591138859481,-76.99252673850833,-6.102020693811923,0.001972513950968448
2,5,652,2,-13,True,"[74, 74, 74, 74, 74]","[453, 1051, 1556, 2148, 2757]",37.72798,35.0,1894.750000006752,-2.7279800000000023,True,2,0,6,6,0,0,31.0,0.9028819707517066,533.8591138859481,-76.99252673850833,0.055890314915259864,1.8817474018033612e-06
2,3,843,1,-19,True,"[74, 74, 74, 74]","[401, 842, 1811, 2786]",19.19495,0.0,5929.249999986496,-19.19495,True,2,0,7,6,0,0,31.0,0.9028819707517066,533.8591138859481,-76.99252673850833,-15.163005235543102,0.01982452350737323
2,6,599,3,-19,True,"[74, 74, 74, 74, 74]","[145, 993, 1416, 1985, 2583]",43.84378,50.0,740.0149999884889,6.156219999999998,True,2,0,8,6,0,0,31.0,0.9028819707517066,533.8591138859481,-76.99252673850833,8.528235706711158,0.0024123106365046775
2,7,390,4,-16,True,"[74, 74, 74, 74]","[401, 964, 1242, 1649]",74.79787,100.0,2398.285000002943,25.202129999999997,True,2,0,9,6,0,0,31.0,0.9028819707517066,533.8591138859481,-76.99252673850833,25.489598451897066,0.0422382587951906
2,6,918,1,-16,True,"[74, 74, 74]","[656, 1324, 2049]",13.04687,22.0,4352.719999995315,8.95313,True,2,0,10,6,0,0,31.0,0.9028819707517066,533.8591138859481,-76.99252673850833,13.399101126781808,0.01499250337715933
2,4,463,4,-16,True,"[74, 74, 74, 74]","[406, 755, 1062, 1556]",62.42097,64.0,1759.0750000090338,1.579030000000003,True,2,0,11,6,0,0,31.0,0.9028819707517066,533.8591138859481,-76.99252673850833,2.7000004394522605,0.00039690076007770016
2,7,1000,1,-19,True,"[74, 74, 74, 74, 74]","[395, 778, 1440, 2357, 3384]",6.87518,0.0,2661.790000012843,-6.87518,True,2,0,12,6,0,0,31.0,0.9028819707517066,533.8591138859481,-76.99252673850833,-2.013580865843842,0.0012934541326455463
2,4,302,5,-19,True,"[74, 74, 74, 74]","[366, 760, 1027, 1364]",93.24415,100.0,2103.5350000020117,6.755849999999995,True,2,0,13,6,0,0,31.0,0.9028819707517066,533.8591138859481,-76.99252673850833,5.801090937586949,0.006451392615237169
2,6,774,2,-16,True,"[74, 74, 74, 74]","[406, 1178, 1776, 2577]",25.3549,22.0,2097.765000013169,-3.3549000000000007,True,2,0,14,6,0,0,31.0,0.9028819707517066,533.8591138859481,-76.99252673850833,0.26221144451895384,9.421316650180864e-06
2,3,390,4,-13,True,"[74, 74, 74, 74]","[360, 755, 1202, 1683]",74.79787,88.0,3866.65000001085,13.202129999999997,True,2,0,15,6,0,0,31.0,0.9028819707517066,533.8591138859481,-76.99252673850833,13.489598451897066,0.012531079518538376
2,2,302,5,-16,True,"[74, 74, 74, 74]","[372, 708, 998, 1353]",93.24415,100.0,1823.9249999751337,6.755849999999995,True,2,0,16,6,0,0,31.0,0.9028819707517066,533.8591138859481,-76.99252673850833,5.801090937586949,0.006451392615237169
2,4,599,3,-19,True,"[74, 74, 74, 74, 74]","[377, 627, 1300, 1881, 2456]",43.84378,43.0,1821.2749999947846,-0.8437800000000024,True,2,0,17,6,0,0,31.0,0.9028819707517066,533.8591138859481,-76.99252673850833,1.5282357067111576,7.032055754278397e-05
2,2,390,4,-19,True,"[74, 74, 74, 74]","[302, 772, 1271, 1689]",74.79787,77.0,2020.2200000057928,2.202129999999997,True,2,0,18,6,0,0,31.0,0.9028819707517066,533.8591138859481,-76.99252673850833,2.4895984518970664,0.0006845141874794049
2,5,302,5,-13,True,"[74, 74, 74, 74]","[406, 726, 1022, 1347]",93.24415,100.0,3338.6349999927916,6.755849999999995,True,2,0,19,6,0,0,31.0,0.9028819707517066,533.8591138859481,-76.99252673850833,5.801090937586949,0.006451392615237169
2,7,504,3,-13,True,"[74, 74, 74, 74, 74]","[389, 656, 1149, 1672, 2188]",56.30039,50.0,2479.8899999877904,-6.30039,True,2,0,20,6,0,0,31.0,0.9028819707517066,533.8591138859481,-76.99252673850833,-4.767244184055841,0.0006768265684427834
2,5,1000,1,-13,True,"[74, 74, 74, 74, 74]","[372, 749, 1422, 2316, 3117]",6.87518,0.0,2715.599999995902,-6.87518,True,2,0,21,6,0,0,31.0,0.9028819707517066,533.8591138859481,-76.99252673850833,-2.013580865843842,0.0012934541326455463
2,6,358,5,-16,True,,,80.9736,93.0,1964.6799999754876,12.026399999999995,False,1,0,22,6,0,0,31.0,0.9028819707517066,533.8591138859481,-76.99252673850833,11.897979306188077,0.012996071775289478
2,5,550,3,-13,True,"[74, 74, 74, 74]","[145, 697, 1306, 1881]",50.0,50.0,5439.489999989746,0.0,True,2,0,23,6,0,0,31.0,0.9028819707517066,533.8591138859481,-76.99252673850833,1.9574378682094107,0.00013605910498843508
2,2,652,2,-13,True,"[74, 74, 74, 74, 74]","[430, 946, 1474, 1985, 2525]",37.72798,0.0,2851.0499999974854,-37.72798,True,2,0,24,6,0,0,31.0,0.9028819707517066,533.8591138859481,-76.99252673850833,-34.94410968508474,0.04852587943338652
2,5,390,4,-19,True,"[74, 74, 74]","[505, 975, 1428]",74.79787,75.0,2613.2499999948777,0.2021299999999968,True,2,0,25,6,0,0,31.0,0.9028819707517066,533.8591138859481,-76.99252673850833,0.4895984518970664,0.00011166202248849119
2,7,652,2,-16,True,"[74, 74, 74, 74, 74]","[499, 1033, 1538, 2043, 2560]",37.72798,11.0,3648.8599999865983,-26.727980000000002,True,2,0,26,6,0,0,31.0,0.9028819707517066,533.8591138859481,-76.99252673850833,-23.94410968508474,0.022947498687656057
2,3,358,5,-13,True,"[74, 74, 74]","[35, 598, 1132]",80.9736,92.0,2534.4850000110455,11.026399999999995,True,2,0,27,6,0,0,31.0,0.9028819707517066,533.8591138859481,-76.99252673850833,10.897979306188077,0.011066950680899981
2,4,918,1,-19,True,"[74, 74, 74, 74, 74, 74, 74]","[110, 702, 1265, 1771, 2334, 2908, 3442]",13.04687,0.0,4291.280000004917,-13.04687,True,2,0,28,6,0,0,31.0,0.9028819707517066,533.8591138859481,-76.99252673850833,-8.600898873218192,0.009105038822075475
2,6,463,4,-16,True,"[74, 74, 74]","[569, 1120, 1753]",62.42097,78.0,3239.2950000066776,15.579030000000003,True,2,0,29,6,0,0,31.0,0.9028819707517066,533.8591138859481,-76.99252673850833,16.70000043945226,0.011557001651209103
2,2,550,3,-16,True,"[74, 74, 74, 74]","[470, 958, 1457, 1939]",50.0,22.0,2579.5750000106636,-28.0,True,2,0,30,6,0,0,31.0,0.9028819707517066,533.8591138859481,-76.99252673850833,-26.04256213179059,0.021577406597347616
2,2,1000,1,-16,True,"[74, 74, 74, 74, 74, 74, 74, 74]","[70, 691, 1353, 1834, 2363, 2932, 3408, 3878]",6.87518,0.0,2978.964999987511,-6.87518,True,2,1,31,6,0,0,31.0,0.9028819707517066,533.8591138859481,-76.99252673850833,-2.013580865843842,0.0012934541326455463
2,4,425,4,-19,True,"[74, 74, 74]","[134, 731, 1324]",68.59844,80.0,2844.115000014426,11.401560000000003,True,2,1,32,6,0,0,31.0,0.9028819707517066,533.8591138859481,-76.99252673850833,12.106523276301772,0.007852499079511136
2,3,302,5,-16,True,"[74, 74, 74]","[93, 656, 1178]",93.24415,100.0,2292.604999995092,6.755849999999995,True,2,1,33,6,0,0,31.0,0.9028819707517066,533.8591138859481,-76.99252673850833,5.801090937586949,0.006451392615237169
2,6,652,2,-13,True,"[74, 74, 74, 74, 74]","[546, 1068, 1573, 2154, 2670]",37.72798,23.0,2342.210000002524,-14.727980000000002,True,2,1,34,6,0,0,31.0,0.9028819707517066,533.8591138859481,-76.99252673850833,-11.94410968508474,0.005841245777714889
2,5,463,4,-16,True,"[74, 74, 74, 74]","[116, 673, 1358, 1968]",62.42097,24.0,2518.1100000045262,-38.42097,True,2,1,35,6,0,0,31.0,0.9028819707517066,533.8591138859481,-76.99252673850833,-37.29999956054774,0.0530424312345674
2,7,843,1,-16,True,"[74, 74, 74, 74, 74, 74, 74]","[441, 929, 1474, 1974, 2479, 2943, 3367]",19.19495,78.0,2282.9149999888614,58.80505,True,2,1,36,6,0,0,31.0,0.9028819707517066,533.8591138859481,-76.99252673850833,62.8369947644569,0.2972801122360126
2,2,329,5,-13,True,"[74, 74, 74]","[64, 673, 1225]",87.0672,89.0,2033.9399999938905,1.9328000000000003,True,2,1,37,6,0,0,31.0,0.9028819707517066,533.8591138859481,-76.99252673850833,1.3940174677932617,0.0006813696239251847
2,4,774,2,-13,True,"[74, 74, 74, 74, 74, 74]","[517, 975, 1498, 2090, 2537, 3088]",25.3549,0.0,2351.2100000225473,-25.3549,True,2,1,38,6,0,0,31.0,0.9028819707517066,533.8591138859481,-76.99252673850833,-21.737788555481046,0.030476289785988944
2,2,599,3,-19,True,"[74, 74, 74, 74, 74]","[23, 639, 1277, 1846, 2421]",43.84378,34.0,2819.00499999756,-9.843780000000002,True,2,1,39,6,0,0,31.0,0.9028819707517066,533.8591138859481,-76.99252673850833,-7.471764293288842,0.0019343125995924266
2,3,774,2,-13,True,"[74, 74, 74, 74, 74, 74]","[75, 685, 1248, 1771, 2287, 2810]",25.3549,26.0,2374.2549999733455,0.6450999999999993,True,2,1,40,6,0,0,31.0,0.9028819707517066,533.8591138859481,-76.99252673850833,4.262211444518954,0.0007903600948313088
2,2,425,4,-13,True,"[74, 74, 74, 74]","[99, 726, 1254, 1887]",68.59844,72.0,1949.590000003809,3.4015600000000035,True,2,1,41,6,0,0,31.0,0.9028819707517066,533.8591138859481,-76.99252673850833,4.106523276301772,0.0010988609079567015
2,3,599,3,-13,True,"[74, 74, 74, 74]","[35, 668, 1347, 1950]",43.84378,39.0,3506.519999995362,-4.843780000000002,True,2,1,42,6,0,0,31.0,0.9028819707517066,533.8591138859481,-76.99252673850833,-2.4717642932888424,0.00022166116740205902
2,5,710,2,-19,True,"[74, 74, 74, 74, 74, 74]","[6, 592, 1126, 1672, 2264, 2937]",31.58063,39.0,2064.234999998007,7.419370000000001,True,2,1,43,6,0,0,31.0,0.9028819707517066,533.8591138859481,-76.99252673850833,10.617224864891568,0.004947364303873293
2,6,1000,1,-19,True,"[74, 74, 74, 74, 74, 74, 74, 74]","[0, 546, 1051, 1596, 2113, 2653, 3158, 3692]",6.87518,0.0,1607.799999997951,-6.87518,True,2,1,44,6,0,0,31.0,0.9028819707517066,533.8591138859481,-76.99252673850833,-2.013580865843842,0.0012934541326455463
2,7,302,5,-19,True,"[74, 74]","[470, 958]",93.24415,100.0,2904.655000020284,6.755849999999995,True,2,1,45,6,0,0,31.0,0.9028819707517066,533.8591138859481,-76.99252673850833,5.801090937586949,0.006451392615237169
2,4,1000,1,-16,True,"[74, 74, 74, 74, 74, 74, 74]","[522, 1097, 1672, 2212, 2734, 3222, 3698]",6.87518,0.0,2778.9449999982025,-6.87518,True,2,1,46,6,0,0,31.0,0.9028819707517066,533.8591138859481,-76.99252673850833,-2.013580865843842,0.0012934541326455463
2,6,302,5,-13,True,"[74, 74]","[627, 1190]",93.24415,87.0,3631.6550000046846,-6.244150000000005,True,2,1,47,6,0,0,31.0,0.9028819707517066,533.8591138859481,-76.99252673850833,-7.198909062413051,0.0040982238053831185
2,7,550,3,-16,True,"[74, 74, 74, 74]","[41, 633, 1248, 1852]",50.0,50.0,7288.870000018505,0.0,True,2,1,48,6,0,0,31.0,0.9028819707517066,533.8591138859481,-76.99252673850833,1.9574378682094107,0.00013605910498843508
2,3,463,4,-19,True,"[74, 74, 74, 74]","[35, 650, 1219, 1712]",62.42097,34.0,6749.65000001248,-28.420969999999997,True,2,1,49,6,0,0,31.0,0.9028819707517066,533.8591138859481,-76.99252673850833,-27.29999956054774,0.028140557918642273
2,7,710,2,-19,True,"[74, 74, 74, 74, 74, 74]","[104, 697, 1213, 1689, 2188, 3024]",31.58063,36.0,2368.1849999993574,4.419370000000001,True,2,1,50,6,0,0,31.0,0.9028819707517066,533.8591138859481,-76.99252673850833,7.617224864891568,0.002455592767535977
2,6,425,4,-19,True,"[74, 74, 74]","[81, 708, 1277]",68.59844,62.0,2360.275000013644,-6.5984399999999965,True,2,1,51,6,0,0,31.0,0.9028819707517066,533.8591138859481,-76.99252673850833,-5.893476723698228,0.0013091733006653525
2,4,358,5,-13,True,"[74, 74]","[586, 1196]",80.9736,73.0,2516.3250000041444,-7.973600000000005,True,2,1,52,6,0,0,31.0,0.9028819707517066,533.8591138859481,-76.99252673850833,-8.102020693811923,0.0038457946992059696
2,7,463,4,-13,True,"[74, 74, 74, 74]","[70, 627, 1149, 1683]",62.42097,46.0,3337.085000006482,-16.420969999999997,True,2,1,53,6,0,0,31.0,0.9028819707517066,533.8591138859481,-76.99252673850833,-15.29999956054774,0.008589941753158505
2,6,550,3,-16,True,"[74, 74, 74]","[679, 1306, 1869]",50.0,50.0,1134.5150000124704,0.0,True,2,1,54,6,0,0,31.0,0.9028819707517066,533.8591138859481,-76.99252673850833,1.9574378682094107,0.00013605910498843508
2,5,918,1,-19,True,"[74, 74, 74, 74, 74, 74]","[639, 1202, 1718, 2165, 2670, 3181]",13.04687,22.0,1598.9600000029895,8.95313,True,2,1,55,6,0,0,31.0,0.9028819707517066,533.8591138859481,-76.99252673850833,13.399101126781808,0.01499250337715933
2,4,504,3,-16,True,"[74, 74, 74, 74]","[35, 685, 1231, 1724]",56.30039,53.0,2877.455000008922,-3.30039,True,2,1,56,6,0,0,31.0,0.9028819707517066,533.8591138859481,-76.99252673850833,-1.7672441840558406,7.326154576583539e-05
2,3,918,1,-16,True,"[74, 74, 74, 74, 74, 74]","[551, 1103, 1643, 2148, 2664, 3123]",13.04687,22.0,1719.360000017332,8.95313,True,2,1,57,6,0,0,31.0,0.9028819707517066,533.8591138859481,-76.99252673850833,13.399101126781808,0.01499250337715933
2,5,329,5,-19,True,"[74, 74, 74]","[35, 627, 1202]",87.0672,100.0,2265.1349999941885,12.9328,True,2,1,58,6,0,0,31.0,0.9028819707517066,533.8591138859481,-76.99252673850833,12.394017467793262,0.018221740591896622
2,2,710,2,-16,True,"[74, 74, 74, 74, 74, 74]","[6, 534, 1080, 1602, 2171, 2752]",31.58063,21.0,1742.2150000056718,-10.58063,True,2,1,59,6,0,0,31.0,0.9028819707517066,533.8591138859481,-76.99252673850833,-7.382775135108432,0.0029554321402761813
2,5,599,3,-16,True,"[74, 74, 74, 74]","[644, 1248, 1933, 2537]",43.84378,50.0,709.6500000043306,6.156219999999998,True,2,1,60,6,0,0,31.0,0.9028819707517066,533.8591138859481,-76.99252673850833,8.528235706711158,0.0024123106365046775
2,4,843,1,-13,True,"[74, 74, 74]","[389, 755, 1620]",19.19495,11.0,3216.1550000018906,-8.194949999999999,True,2,2,61,6,0,0,31.0,0.9028819707517066,533.8591138859481,-76.99252673850833,-4.1630052355431015,0.0019405135400486725
2,2,774,2,-19,True,"[74, 74, 74]","[685, 1712, 2554]",25.3549,24.0,2217.4850000010338,-1.3549000000000007,True,2,2,62,6,0,0,31.0,0.9028819707517066,533.8591138859481,-76.99252673850833,2.262211444518954,0.00015679957462651418
2,4,329,5,-16,True,"[74, 74]","[470, 987]",87.0672,100.0,2158.2500000076834,12.9328,True,2,2,63,6,0,0,31.0,0.9028819707517066,533.8591138859481,-76.99252673850833,12.394017467793262,0.018221740591896622
2,7,774,2,-13,True,"[74, 74, 74, 74, 74, 74]","[464, 964, 1498, 2026, 2566, 3036]",25.3549,23.0,2090.1650000014342,-2.3549000000000007,True,2,2,64,6,0,0,31.0,0.9028819707517066,533.8591138859481,-76.99252673850833,1.2622114445189538,2.233766285978991e-05
2,6,504,3,-13,True,"[74, 74, 74, 74]","[511, 1091, 1654, 2183]",56.30039,53.0,2095.369999995455,-3.30039,True,2,2,65,6,0,0,31.0,0.9028819707517066,533.8591138859481,-76.99252673850833,-1.7672441840558406,7.326154576583539e-05
2,4,710,2,-19,True,"[74, 74, 74, 74, 74]","[551, 1068, 1643, 2177, 2781]",31.58063,35.0,2351.920000015525,3.4193700000000007,True,2,2,66,6,0,0,31.0,0.9028819707517066,533.8591138859481,-76.99252673850833,6.617224864891568,0.0018169829525261577
2,7,329,5,-16,True,"[74, 74]","[580, 1115]",87.0672,73.0,2613.694999978179,-14.0672,True,2,2,67,6,0,0,31.0,0.9028819707517066,533.8591138859481,-76.99252673850833,-14.605982532206738,0.017496658356873775
2,3,710,2,-16,True,"[74, 74, 74, 74, 74]","[534, 1051, 1591, 2154, 2943]",31.58063,24.0,2458.6699999927077,-7.580629999999999,True,2,2,68,6,0,0,31.0,0.9028819707517066,533.8591138859481,-76.99252673850833,-4.382775135108432,0.001127637991804569
2,4,550,3,-13,True,"[74, 74, 74, 74, 74]","[46, 691, 1236, 1765, 2241]",50.0,50.0,484.5550000027288,0.0,True,2,2,69,6,0,0,31.0,0.9028819707517066,533.8591138859481,-76.99252673850833,1.9574378682094107,0.00013605910498843508
2,6,390,4,-13,True,"[74, 74, 74]","[470, 987, 1602]",74.79787,63.0,1986.5850000060163,-11.797870000000003,True,2,2,70,6,0,0,31.0,0.9028819707517066,533.8591138859481,-76.99252673850833,-11.510401548102934,0.006890685921817855
2,5,504,3,-19,True,"[74, 74, 74, 74, 74]","[12, 499, 1103, 1660, 2136]",56.30039,53.0,3012.0850000239443,-3.30039,True,2,2,71,6,0,0,31.0,0.9028819707517066,533.8591138859481,-76.99252673850833,-1.7672441840558406,7.326154576583539e-05
2,3,1000,1,-13,True,"[74, 74, 74, 74, 74]","[1376, 2003, 2548, 3082, 3767]",6.87518,0.0,3742.7350000070874,-6.87518,True,2,2,72,6,0,0,31.0,0.9028819707517066,533.8591138859481,-76.99252673850833,-2.013580865843842,0.0012934541326455463
2,5,774,2,-16,True,"[74, 74, 74, 74, 74, 74]","[122, 673, 1254, 1788, 2328, 2961]",25.3549,35.0,2080.889999982901,9.6451,True,2,2,73,6,0,0,31.0,0.9028819707517066,533.8591138859481,-76.99252673850833,13.262211444518954,0.009657887930830089
2,3,504,3,-19,True,"[74, 74, 74, 74]","[35, 662, 1202, 1771]",56.30039,50.0,519.2699999897741,-6.30039,True,2,2,74,6,0,0,31.0,0.9028819707517066,533.8591138859481,-76.99252673850833,-4.767244184055841,0.0006768265684427834
2,6,843,1,-13,True,"[74, 74, 74, 74, 74, 74]","[656, 1149, 1724, 2426, 2926, 3529]",19.19495,34.0,2863.6199999891687,14.805050000000001,True,2,2,75,6,0,0,31.0,0.9028819707517066,533.8591138859481,-76.99252673850833,18.836994764456897,0.02504011720282234
2,5,358,5,-16,True,"[74, 74, 74]","[418, 952, 1573]",80.9736,77.0,3128.515000018524,-3.9736000000000047,True,2,2,76,6,0,0,31.0,0.9028819707517066,533.8591138859481,-76.99252673850833,-4.102020693811923,0.0007188573040300092
2,7,425,4,-19,True,"[74, 74, 74]","[557, 1086, 1620]",68.59844,63.0,1888.4050000051502,-5.5984399999999965,True,2,2,77,6,0,0,31.0,0.9028819707517066,533.8591138859481,-76.99252673850833,-4.893476723698228,0.0008555240560369027
2,6,329,5,-19,True,"[74, 74, 74]","[6, 621, 1190]",87.0672,75.0,2430.7499999995343,-12.0672,True,2,2,78,6,0,0,31.0,0.9028819707517066,533.8591138859481,-76.99252673850833,-12.605982532206738,0.012651229772957354
2,2,918,1,-13,True,"[74, 74, 74, 74, 74, 74, 74]","[215, 685, 1283, 1863, 2479, 3001, 3576]",13.04687,23.0,2072.4049999844283,9.95313,True,2,2,79,6,0,0,31.0,0.9028819707517066,533.8591138859481,-76.99252673850833,14.399101126781808,0.017515674653593154
2,7,599,3,-19,True,"[74, 74, 74, 74, 74]","[122, 691, 1289, 1834, 2537]",43.84378,38.0,2408.5250000061933,-5.843780000000002,True,2,2,80,6,0,0,31.0,0.9028819707517066,533.8591138859481,-76.99252673850833,-3.4717642932888424,0.00042877139429646385
2,4,390,4,-13,True,"[74, 74, 74]","[75, 662, 1213]",74.79787,76.0,1733.9199999987613,1.2021299999999968,True,2,2,81,6,0,0,31.0,0.9028819707517066,533.8591138859481,-76.99252673850833,1.4895984518970664,0.000337277766357312
2,6,710,2,-19,True,"[74, 74, 74, 74, 74]","[81, 702, 1324, 1916, 2577]",31.58063,31.0,1777.8050000197254,-0.5806299999999993,True,2,2,82,6,0,0,31.0,0.9028819707517066,533.8591138859481,-76.99252673850833,2.6172248648915684,0.0002224471779999743
2,3,425,4,-16,True,"[74, 74, 74]","[163, 731, 1329]",68.59844,70.0,2159.704999998212,1.4015600000000035,True,2,2,83,6,0,0,31.0,0.9028819707517066,533.8591138859481,-76.99252673850833,2.106523276301772,0.00037182471030717027
2,2,358,5,-19,True,"[74, 74, 74]","[46, 644, 1190]",80.9736,67.0,2736.8849999911617,-13.973600000000005,True,2,2,84,6,0,0,31.0,0.9028819707517066,533.8591138859481,-76.99252673850833,-14.102020693811923,0.013183381551713032
2,5,425,4,-13,True,"[74, 74, 74, 74]","[81, 650, 1219, 1840]",68.59844,58.0,1698.3849999960512,-10.598439999999997,True,2,2,85,6,0,0,31.0,0.9028819707517066,533.8591138859481,-76.99252673850833,-9.893476723698228,0.004085143624418228
2,7,918,1,-13,True,"[74, 74, 74, 74, 74, 74]","[551, 1051, 1672, 2177, 2723, 3233]",13.04687,23.0,1605.3550000069663,9.95313,True,2,2,86,6,0,0,31.0,0.9028819707517066,533.8591138859481,-76.99252673850833,14.399101126781808,0.017515674653593154
2,2,504,3,-13,True,"[74, 74, 74, 74]","[41, 627, 1184, 1753]",56.30039,50.0,1873.9300000015646,-6.30039,True,2,2,87,6,0,0,31.0,0.9028819707517066,533.8591138859481,-76.99252673850833,-4.767244184055841,0.0006768265684427834
2,5,843,1,-16,True,"[74, 74, 74, 74, 74, 74, 74]","[6, 575, 1080, 1654, 2194, 2711, 3390]",19.19495,24.0,3479.409999999916,4.805050000000001,True,2,2,88,6,0,0,31.0,0.9028819707517066,533.8591138859481,-76.99252673850833,8.836994764456898,0.004940356596121536
2,3,329,5,-19,True,"[74, 74, 74]","[116, 702, 1219]",87.0672,100.0,2509.4850000168663,12.9328,True,2,2,89,6,0,0,31.0,0.9028819707517066,533.8591138859481,-76.99252673850833,12.394017467793262,0.018221740591896622
2,2,463,4,-16,True,"[74, 74, 74]","[534, 1091, 1625]",62.42097,50.0,540.804999996908,-12.420969999999997,True,2,2,90,6,0,0,31.0,0.9028819707517066,533.8591138859481,-76.99252673850833,-11.29999956054774,0.004577707713421822
3,7,843,1,-16,False,"[74, 74, 74, 74, 74]","[576, 1205, 1851, 2459, 3205]",19.19495,3.0,1938.495000009425,-16.19495,True,0,0,1,6,0,0,42.0,0.6025996635431053,257.2397626416845,-33.28376365379866,-30.008146668099812,0.04024175019505827
3,2,302,5,-16,False,"[74, 74, 74]","[165, 651, 1120]",93.24415,73.0,2630.3199999965727,-20.244150000000005,True,0,0,2,6,0,0,42.0,0.6025996635431053,257.2397626416845,-33.28376365379866,5.824740566887087,0.0020204327454976683
3,3,918,1,-13,False,"[74, 74, 74, 74, 74]","[469, 1024, 1579, 2229, 2736]",13.04687,6.0,2943.3999999891967,-7.04687,True,0,0,3,6,0,0,42.0,0.6025996635431053,257.2397626416845,-33.28376365379866,-24.171357092710142,0.03242378778331757
3,5,390,4,-13,False,,,74.79787,76.0,8608.040000020992,1.2021299999999968,False,0,0,4,6,0,0,42.0,0.6025996635431053,257.2397626416845,-33.28376365379866,17.336055347190054,0.01068649396602733
3,2,710,2,-19,False,,,31.58063,0.0,2095.5949999624863,-31.58063,False,0,0,5,6,0,0,42.0,0.6025996635431053,257.2397626416845,-33.28376365379866,-38.72303505446398,0.04250013630726689
3,6,918,1,-13,False,,,13.04687,0.0,2322.764999989886,-13.04687,False,0,0,6,6,0,0,42.0,0.6025996635431053,257.2397626416845,-33.28376365379866,-30.171357092710142,0.051205585546091975
3,3,710,2,-13,False,,,31.58063,21.0,3195.3750000102445,-10.58063,False,0,0,7,6,0,0,42.0,0.6025996635431053,257.2397626416845,-33.28376365379866,-17.723035054463978,0.008646011230208311
3,4,843,1,-16,False,,,19.19495,50.0,3751.9350000075065,30.80505,False,0,0,8,6,0,0,42.0,0.6025996635431053,257.2397626416845,-33.28376365379866,16.991853331900188,0.014631611977240616
3,6,774,2,-16,False,,,25.3549,25.0,3296.4049999718554,-0.35490000000000066,False,0,0,9,6,0,0,42.0,0.6025996635431053,257.2397626416845,-33.28376365379866,-10.85041647486927,0.0038797651774144844
3,7,302,5,-19,False,,,93.24415,70.0,3626.339999958873,-23.244150000000005,False,0,0,10,6,0,0,42.0,0.6025996635431053,257.2397626416845,-33.28376365379866,2.824740566887087,0.0003624678383804637
3,5,550,3,-16,False,,,50.0,27.0,3153.280000027735,-23.0,False,0,0,11,6,0,0,42.0,0.6025996635431053,257.2397626416845,-33.28376365379866,-20.22193399440895,0.00782254787077452
3,7,774,2,-19,False,,,25.3549,28.0,4098.800000036135,2.6450999999999993,False,0,0,12,6,0,0,42.0,0.6025996635431053,257.2397626416845,-33.28376365379866,-7.85041647486927,0.0019443805151108818
3,4,463,4,-13,False,,,62.42097,34.0,10113.58999996446,-28.420969999999997,False,0,0,13,6,0,0,42.0,0.6025996635431053,257.2397626416845,-33.28376365379866,-18.95310600195237,0.00857498404691687
3,5,774,2,-13,False,,,25.3549,37.0,3862.779999966733,11.6451,False,0,0,14,6,0,0,42.0,0.6025996635431053,257.2397626416845,-33.28376365379866,1.1495835251307298,0.00010988829951145707
3,7,425,4,-16,False,,,68.59844,28.0,10267.255000013392,-40.59844,False,0,0,15,6,0,0,42.0,0.6025996635431053,257.2397626416845,-33.28376365379866,-27.80345713148943,0.02278549445544411
3,5,302,5,-16,False,,,93.24415,78.0,3166.609999956563,-15.244150000000005,False,0,0,16,6,0,0,42.0,0.6025996635431053,257.2397626416845,-33.28376365379866,10.824740566887087,0.007767534501152086
3,2,425,4,-16,False,,,68.59844,64.0,3868.910000019241,-4.5984399999999965,False,0,0,17,6,0,0,42.0,0.6025996635431053,257.2397626416845,-33.28376365379866,8.19654286851057,0.0018669685042966436
3,4,329,5,-19,False,,,87.0672,29.0,24755.45499997679,-58.0672,False,0,0,18,6,0,0,42.0,0.6025996635431053,257.2397626416845,-33.28376365379866,-35.32514634144199,0.07614445073623985
3,6,463,4,-13,False,,,62.42097,50.0,7249.055000022054,-12.420969999999997,False,0,0,19,6,0,0,42.0,0.6025996635431053,257.2397626416845,-33.28376365379866,-2.9531060019523707,0.00021726220093887808
3,4,550,3,-13,False,,,50.0,50.0,1265.1199999963865,0.0,False,0,0,20,6,0,0,42.0,0.6025996635431053,257.2397626416845,-33.28376365379866,2.77806600559105,0.00016563852916438398
3,3,302,5,-16,False,,,93.24415,100.0,6370.189999986906,6.755849999999995,False,0,0,21,6,0,0,42.0,0.6025996635431053,257.2397626416845,-33.28376365379866,32.82474056688709,0.07736461184634871
3,2,1000,1,-16,False,,,6.87518,0.0,4374.5700000436045,-6.87518,False,0,0,22,6,0,0,42.0,0.6025996635431053,257.2397626416845,-33.28376365379866,-27.32366855776302,0.05209492876123196
3,3,504,3,-16,False,,,56.30039,50.0,6796.990000002552,-6.30039,False,0,0,23,6,0,0,42.0,0.6025996635431053,257.2397626416845,-33.28376365379866,-0.12900481746056158,1.9157566814863788e-07
3,6,329,5,-19,False,,,87.0672,72.0,4352.335000003222,-15.0672,False,0,0,24,6,0,0,42.0,0.6025996635431053,257.2397626416845,-33.28376365379866,7.674853658558007,0.003042633198184271
3,7,550,3,-16,False,,,50.0,50.0,933.6449999827892,0.0,False,0,0,25,6,0,0,42.0,0.6025996635431053,257.2397626416845,-33.28376365379866,2.77806600559105,0.00016563852916438398
3,5,1000,1,-13,False,,,6.87518,50.0,7520.989999989979,43.12482,False,0,0,26,6,0,0,42.0,0.6025996635431053,257.2397626416845,-33.28376365379866,22.67633144223698,0.04150952856976071
3,2,599,3,-16,False,,,43.84378,50.0,840.0649999966845,6.156219999999998,False,0,0,27,6,0,0,42.0,0.6025996635431053,257.2397626416845,-33.28376365379866,5.61861289420483,0.0007061332618990246
3,3,425,4,-16,False,,,68.59844,50.0,4613.985000003595,-18.598439999999997,False,0,0,28,6,0,0,42.0,0.6025996635431053,257.2397626416845,-33.28376365379866,-5.803457131489431,0.0010431026630215532
3,6,550,3,-16,False,,,50.0,50.0,3144.6750000468455,0.0,False,0,0,29,6,0,0,42.0,0.6025996635431053,257.2397626416845,-33.28376365379866,2.77806600559105,0.00016563852916438398
3,4,710,2,-13,False,,,31.58063,50.0,9545.920000004116,18.41937,False,0,0,30,6,0,0,42.0,0.6025996635431053,257.2397626416845,-33.28376365379866,11.276964945536022,0.0040069879438773
3,5,710,2,-19,False,,,31.58063,50.0,7469.625000027008,18.41937,False,0,1,31,6,0,0,42.0,0.6025996635431053,257.2397626416845,-33.28376365379866,11.276964945536022,0.0040069879438773
3,2,918,1,-19,False,,,13.04687,50.0,3832.8399999882095,36.95313,False,0,1,32,6,0,0,42.0,0.6025996635431053,257.2397626416845,-33.28376365379866,19.828642907289858,0.02524408724992576
3,7,504,3,-13,False,,,56.30039,50.0,21266.145000001416,-6.30039,False,0,1,33,6,0,0,42.0,0.6025996635431053,257.2397626416845,-33.28376365379866,-0.12900481746056158,1.9157566814863788e-07
3,6,1000,1,-16,False,,,6.87518,50.0,12820.100000011735,43.12482,False,0,1,34,6,0,0,42.0,0.6025996635431053,257.2397626416845,-33.28376365379866,22.67633144223698,0.04150952856976071
3,2,550,3,-13,False,,,50.0,37.0,7849.61499995552,-13.0,False,0,1,35,6,0,0,42.0,0.6025996635431053,257.2397626416845,-33.28376365379866,-10.22193399440895,0.001970922049190495
3,7,918,1,-19,False,,,13.04687,35.0,9075.394999992568,21.95313,False,0,1,36,6,0,0,42.0,0.6025996635431053,257.2397626416845,-33.28376365379866,4.828642907289858,0.0018777282812071062
3,4,599,3,-19,False,,,43.84378,33.0,4974.344999995083,-10.843780000000002,False,0,1,37,6,0,0,42.0,0.6025996635431053,257.2397626416845,-33.28376365379866,-11.38138710579517,0.0025373162920653346
3,7,652,2,-13,False,,,37.72798,40.0,74283.95999997156,2.2720199999999977,False,0,1,38,6,0,0,42.0,0.6025996635431053,257.2397626416845,-33.28376365379866,-1.559490976434489,3.4035027768097184e-05
3,4,302,5,-16,False,,,93.24415,50.0,4195.309999980964,-43.244150000000005,False,0,1,39,6,0,0,42.0,0.6025996635431053,257.2397626416845,-33.28376365379866,-17.175259433112913,0.023623377927878383
3,5,918,1,-19,False,,,13.04687,71.0,3840.4149999842048,57.95313,False,0,1,40,6,0,0,42.0,0.6025996635431053,257.2397626416845,-33.28376365379866,40.82864290728986,0.10281991398503054
3,4,425,4,-16,False,,,68.59844,75.0,5617.834999982733,6.4015600000000035,False,0,1,41,6,0,0,42.0,0.6025996635431053,257.2397626416845,-33.28376365379866,19.19654286851057,0.010513263232807617
3,2,774,2,-13,False,,,25.3549,51.0,3247.414999990724,25.6451,False,0,1,42,6,0,0,42.0,0.6025996635431053,257.2397626416845,-33.28376365379866,15.14958352513073,0.009097669763785182
3,7,390,4,-13,False,,,74.79787,50.0,64702.529999951366,-24.797870000000003,False,0,1,43,6,0,0,42.0,0.6025996635431053,257.2397626416845,-33.28376365379866,-8.663944652809946,0.002953126534809157
3,2,329,5,-19,False,,,87.0672,100.0,2309.349999995902,12.9328,False,0,1,44,6,0,0,42.0,0.6025996635431053,257.2397626416845,-33.28376365379866,35.67485365855801,0.07331204048605357
3,6,390,4,-16,False,,,74.79787,65.0,3885.6500000110827,-9.797870000000003,False,0,1,45,6,0,0,42.0,0.6025996635431053,257.2397626416845,-33.28376365379866,6.3360553471900545,0.001343118335387752
3,7,329,5,-13,False,,,87.0672,50.0,7180.044999986421,-37.0672,False,0,1,46,6,0,0,42.0,0.6025996635431053,257.2397626416845,-33.28376365379866,-14.325146341441993,0.01305110185888452
3,2,463,4,-19,False,,,62.42097,50.0,3378.550000023097,-12.420969999999997,False,0,1,47,6,0,0,42.0,0.6025996635431053,257.2397626416845,-33.28376365379866,-2.9531060019523707,0.00021726220093887808
3,6,302,5,-16,False,,,93.24415,50.0,15140.995000023395,-43.244150000000005,False,0,1,48,6,0,0,42.0,0.6025996635431053,257.2397626416845,-33.28376365379866,-17.175259433112913,0.023623377927878383
3,5,425,4,-19,False,,,68.59844,69.0,4604.055000003427,0.40156000000000347,False,0,1,49,6,0,0,42.0,0.6025996635431053,257.2397626416845,-33.28376365379866,13.19654286851057,0.004924487391709729
3,3,599,3,-13,False,,,43.84378,50.0,16338.095000013709,6.156219999999998,False,0,1,50,6,0,0,42.0,0.6025996635431053,257.2397626416845,-33.28376365379866,5.61861289420483,0.0007061332618990246
3,4,1000,1,-19,False,,,6.87518,14.0,2814.4450000254437,7.12482,False,0,1,51,6,0,0,42.0,0.6025996635431053,257.2397626416845,-33.28376365379866,-13.323668557763021,0.011510752014229162
3,3,652,2,-19,False,,,37.72798,50.0,1736.2399999983609,12.272019999999998,False,0,1,52,6,0,0,42.0,0.6025996635431053,257.2397626416845,-33.28376365379866,8.440509023565511,0.0018336224776416324
3,5,504,3,-19,False,,,56.30039,50.0,1648.1449999846518,-6.30039,False,0,1,53,6,0,0,42.0,0.6025996635431053,257.2397626416845,-33.28376365379866,-0.12900481746056158,1.9157566814863788e-07
3,6,710,2,-19,False,,,31.58063,50.0,1005.4699999745935,18.41937,False,0,1,54,6,0,0,42.0,0.6025996635431053,257.2397626416845,-33.28376365379866,11.276964945536022,0.0040069879438773
3,3,463,4,-13,False,,,62.42097,50.0,4606.330000038724,-12.420969999999997,False,0,1,55,6,0,0,42.0,0.6025996635431053,257.2397626416845,-33.28376365379866,-2.9531060019523707,0.00021726220093887808
3,4,652,2,-16,False,,,37.72798,50.0,2045.2199999708682,12.272019999999998,False,0,1,56,6,0,0,42.0,0.6025996635431053,257.2397626416845,-33.28376365379866,8.440509023565511,0.0018336224776416324
3,3,358,5,-13,False,,,80.9736,72.0,5533.69000001112,-8.973600000000005,False,0,1,57,6,0,0,42.0,0.6025996635431053,257.2397626416845,-33.28376365379866,10.486507436043233,0.0047648395711418125
3,6,599,3,-19,False,,,43.84378,50.0,14907.904999970924,6.156219999999998,False,0,1,58,6,0,0,42.0,0.6025996635431053,257.2397626416845,-33.28376365379866,5.61861289420483,0.0007061332618990246
3,5,358,5,-19,False,,,80.9736,50.0,5016.379999986384,-30.973600000000005,False,0,1,59,6,0,0,42.0,0.6025996635431053,257.2397626416845,-33.28376365379866,-11.513492563956767,0.006656089298085669
3,3,1000,1,-16,False,,,6.87518,32.0,7216.7999999946915,25.12482,False,0,1,60,6,0,0,42.0,0.6025996635431053,257.2397626416845,-33.28376365379866,4.676331442236979,0.002325684417672247
3,5,599,3,-13,False,,,43.84378,50.0,5200.870000000577,6.156219999999998,False,0,2,61,6,0,0,42.0,0.6025996635431053,257.2397626416845,-33.28376365379866,5.61861289420483,0.0007061332618990246
3,2,358,5,-13,False,,,80.9736,82.0,3339.3250000081025,1.0263999999999953,False,0,2,62,6,0,0,42.0,0.6025996635431053,257.2397626416845,-33.28376365379866,20.486507436043233,0.01890298452612697
3,5,652,2,-16,False,,,37.72798,50.0,10236.124999995809,12.272019999999998,False,0,2,63,6,0,0,42.0,0.6025996635431053,257.2397626416845,-33.28376365379866,8.440509023565511,0.0018336224776416324
3,4,358,5,-13,False,,,80.9736,50.0,4109.799999976531,-30.973600000000005,False,0,2,64,6,0,0,42.0,0.6025996635431053,257.2397626416845,-33.28376365379866,-11.513492563956767,0.006656089298085669
3,2,504,3,-19,False,,,56.30039,32.0,12760.94499998726,-24.30039,False,0,2,65,6,0,0,42.0,0.6025996635431053,257.2397626416845,-33.28376365379866,-18.12900481746056,0.006709876914445413
3,3,329,5,-19,False,,,87.0672,35.0,8130.245000007562,-52.0672,False,0,2,66,6,0,0,42.0,0.6025996635431053,257.2397626416845,-33.28376365379866,-29.325146341441993,0.05278158587988682
3,7,1000,1,-13,False,,,6.87518,3.0,2946.0099999560043,-3.8751800000000003,False,0,2,67,6,0,0,42.0,0.6025996635431053,257.2397626416845,-33.28376365379866,-24.32366855776302,0.04093508784147362
3,6,358,5,-13,False,,,80.9736,83.0,4051.6499999794178,2.0263999999999953,False,0,2,68,6,0,0,42.0,0.6025996635431053,257.2397626416845,-33.28376365379866,21.486507436043233,0.0208323485314366
3,7,599,3,-19,False,,,43.84378,70.0,9546.235000016168,26.156219999999998,False,0,2,69,6,0,0,42.0,0.6025996635431053,257.2397626416845,-33.28376365379866,25.61861289420483,0.013711622455354112
3,5,329,5,-13,False,,,87.0672,90.0,6358.074999996461,2.9328000000000003,False,0,2,70,6,0,0,42.0,0.6025996635431053,257.2397626416845,-33.28376365379866,25.674853658558007,0.037543436100454415
3,4,504,3,-16,False,,,56.30039,62.0,10028.330000001006,5.69961,False,0,2,71,6,0,0,42.0,0.6025996635431053,257.2397626416845,-33.28376365379866,11.870995182539438,0.0029030259810728935
3,7,463,4,-19,False,,,62.42097,62.0,9996.245000045747,-0.42096999999999696,False,0,2,72,6,0,0,42.0,0.6025996635431053,257.2397626416845,-33.28376365379866,9.04689399804763,0.0019058662269537867
3,2,652,2,-16,False,,,37.72798,31.0,3919.0200000302866,-6.727980000000002,False,0,2,73,6,0,0,42.0,0.6025996635431053,257.2397626416845,-33.28376365379866,-10.559490976434489,0.0024624669832006315
3,7,358,5,-16,False,,,80.9736,50.0,6523.545000003651,-30.973600000000005,False,0,2,74,6,0,0,42.0,0.6025996635431053,257.2397626416845,-33.28376365379866,-11.513492563956767,0.006656089298085669
3,3,774,2,-16,False,,,25.3549,50.0,3632.704999996349,24.6451,False,0,2,75,6,0,0,42.0,0.6025996635431053,257.2397626416845,-33.28376365379866,14.14958352513073,0.007977614975081324
3,4,918,1,-13,False,,,13.04687,50.0,2444.764999963809,36.95313,False,0,2,76,6,0,0,42.0,0.6025996635431053,257.2397626416845,-33.28376365379866,19.828642907289858,0.02524408724992576
3,3,550,3,-19,False,,,50.0,50.0,8385.59499999974,0.0,False,0,2,77,6,0,0,42.0,0.6025996635431053,257.2397626416845,-33.28376365379866,2.77806600559105,0.00016563852916438398
3,2,390,4,-13,False,,,74.79787,75.0,2712.225000024773,0.2021299999999968,False,0,2,78,6,0,0,42.0,0.6025996635431053,257.2397626416845,-33.28376365379866,16.336055347190054,0.009469122464283337
3,6,504,3,-13,False,,,56.30039,50.0,2449.209999991581,-6.30039,False,0,2,79,6,0,0,42.0,0.6025996635431053,257.2397626416845,-33.28376365379866,-0.12900481746056158,1.9157566814863788e-07
3,2,843,1,-13,False,,,19.19495,34.0,2738.520000013523,14.805050000000001,False,0,2,80,6,0,0,42.0,0.6025996635431053,257.2397626416845,-33.28376365379866,0.9918533319001881,0.00013207475317148783
3,4,390,4,-19,False,,,74.79787,32.0,7035.759999998845,-42.79787,False,0,2,81,6,0,0,42.0,0.6025996635431053,257.2397626416845,-33.28376365379866,-26.663944652809946,0.026742775172254252
3,3,843,1,-19,False,,,19.19495,30.0,7077.20999995945,10.805050000000001,False,0,2,82,6,0,0,42.0,0.6025996635431053,257.2397626416845,-33.28376365379866,-3.008146668099812,0.0002520101486515779
3,6,425,4,-19,False,,,68.59844,50.0,5945.475000014994,-18.598439999999997,False,0,2,83,6,0,0,42.0,0.6025996635431053,257.2397626416845,-33.28376365379866,-5.803457131489431,0.0010431026630215532
3,4,774,2,-19,False,,,25.3549,50.0,5101.115000026766,24.6451,False,0,2,84,6,0,0,42.0,0.6025996635431053,257.2397626416845,-33.28376365379866,14.14958352513073,0.007977614975081324
3,6,843,1,-19,False,,,19.19495,31.0,12808.839999954216,11.805050000000001,False,0,2,85,6,0,0,42.0,0.6025996635431053,257.2397626416845,-33.28376365379866,-2.008146668099812,8.159556097540397e-05
3,5,463,4,-16,False,,,62.42097,20.0,8839.249999960884,-42.42097,False,0,2,86,6,0,0,42.0,0.6025996635431053,257.2397626416845,-33.28376365379866,-32.95310600195237,0.025834109925270618
3,7,710,2,-16,False,,,31.58063,27.0,2851.139999984298,-4.580629999999999,False,0,2,87,6,0,0,42.0,0.6025996635431053,257.2397626416845,-33.28376365379866,-11.723035054463978,0.0036783210568590006
3,3,390,4,-19,False,,,74.79787,78.0,4263.870000024326,3.202129999999997,False,0,2,88,6,0,0,42.0,0.6025996635431053,257.2397626416845,-33.28376365379866,19.336055347190054,0.013342021199799551
3,6,652,2,-13,False,,,37.72798,30.0,2220.4050000291318,-7.727980000000002,False,0,2,89,6,0,0,42.0,0.6025996635431053,257.2397626416845,-33.28376365379866,-11.559490976434489,0.0029690214496123583
3,5,843,1,-16,False,,,19.19495,18.0,2245.7600000198,-1.1949499999999986,False,0,2,90,6,0,0,42.0,0.6025996635431053,257.2397626416845,-33.28376365379866,-15.008146668099812,0.00959938361868554
4,6,550,3,-16,False,,,50.0,38.0,2763.7799996882677,-12.0,False,0,0,1,6,0,0,23.0,0.6166749577354588,289.94914052521216,-37.7271320961744,-13.894020126495043,0.003988195577132347
4,7,425,4,-16,False,,,68.59844,18.0,4197.110000066459,-50.59844,False,0,0,2,6,0,0,23.0,0.6166749577354588,289.94914052521216,-37.7271320961744,-43.62117299137432,0.05944691754759943
4,4,302,5,-16,False,,,93.24415,89.0,4537.150000222027,-4.244150000000005,False,0,0,3,6,0,0,23.0,0.6166749577354588,289.94914052521216,-37.7271320961744,14.488893884852743,0.027848409250090064
4,6,463,4,-16,False,,,62.42097,65.0,1964.4800000824034,2.579030000000003,False,0,0,4,6,0,0,23.0,0.6166749577354588,289.94914052521216,-37.7271320961744,6.609698814562556,0.0017873767040992945
4,2,918,1,-16,False,,,13.04687,11.0,2902.2400001995265,-2.04687,False,0,0,5,6,0,0,23.0,0.6166749577354588,289.94914052521216,-37.7271320961744,-21.567198383096596,0.03758876531662655
4,6,652,2,-19,False,,,37.72798,12.0,1886.1400000751019,-25.727980000000002,False,0,0,6,6,0,0,23.0,0.6166749577354588,289.94914052521216,-37.7271320961744,-33.475643348308736,0.031285075955271566
4,4,425,4,-16,False,,,68.59844,65.0,3135.1050003431737,-3.5984399999999965,False,0,0,7,6,0,0,23.0,0.6166749577354588,289.94914052521216,-37.7271320961744,3.3788270086256773,0.0009178679424351005
4,6,1000,1,-19,False,,,6.87518,12.0,2614.684999920428,5.12482,False,0,0,8,6,0,0,23.0,0.6166749577354588,289.94914052521216,-37.7271320961744,-17.33934462700703,0.032977514866860035
4,2,652,2,-19,False,,,37.72798,18.0,2704.6550000086427,-19.727980000000002,False,0,0,9,6,0,0,23.0,0.6166749577354588,289.94914052521216,-37.7271320961744,-27.475643348308736,0.021114129482742217
4,7,843,1,-19,False,,,19.19495,12.0,2435.8950001187623,-7.194949999999999,False,0,0,10,6,0,0,23.0,0.6166749577354588,289.94914052521216,-37.7271320961744,-23.782698173113943,0.03448486615324073
4,3,710,2,-13,False,,,31.58063,21.0,2205.7150001637638,-10.58063,False,0,0,11,6,0,0,23.0,0.6166749577354588,289.94914052521216,-37.7271320961744,-21.260521754301607,0.016128272900369087
4,2,599,3,-16,False,,,43.84378,41.0,3930.685000028461,-2.8437800000000024,False,0,0,12,6,0,0,23.0,0.6166749577354588,289.94914052521216,-37.7271320961744,-7.674261423519198,0.001321814922238101
4,5,1000,1,-19,False,,,6.87518,50.0,1422.479999717325,43.12482,False,0,0,13,6,0,0,23.0,0.6166749577354588,289.94914052521216,-37.7271320961744,20.66065537299297,0.030077938571405206
4,4,550,3,-13,False,,,50.0,73.0,1848.1050003319979,23.0,False,0,0,14,6,0,0,23.0,0.6166749577354588,289.94914052521216,-37.7271320961744,21.105979873504957,0.010727047527164045
4,5,390,4,-16,False,,,74.79787,83.0,1920.8599999547005,8.202129999999997,False,0,0,15,6,0,0,23.0,0.6166749577354588,289.94914052521216,-37.7271320961744,18.13646560686753,0.017811996234046234
4,4,843,1,-19,False,,,19.19495,76.0,2794.3149995990098,56.80505,False,0,0,16,6,0,0,23.0,0.6166749577354588,289.94914052521216,-37.7271320961744,40.21730182688606,0.08283619052011808
4,5,358,5,-13,False,,,80.9736,88.0,3531.3799995929003,7.026399999999995,False,0,0,17,6,0,0,23.0,0.6166749577354588,289.94914052521216,-37.7271320961744,19.906504248638,0.027763664788424555
4,3,550,3,-16,False,,,50.0,78.0,2416.8050000444055,28.0,False,0,0,18,6,0,0,23.0,0.6166749577354588,289.94914052521216,-37.7271320961744,26.105979873504957,0.016227988252608846
4,5,710,2,-13,False,,,31.58063,68.0,3286.3349998369813,36.41937,False,0,0,19,6,0,0,23.0,0.6166749577354588,289.94914052521216,-37.7271320961744,25.739478245698393,0.021581653448439663
4,3,329,5,-13,False,,,87.0672,70.0,2244.7700002230704,-17.0672,False,0,0,20,6,0,0,23.0,0.6166749577354588,289.94914052521216,-37.7271320961744,-1.2805041250314844,0.00020187700223466248
4,7,504,3,-19,False,,,56.30039,69.0,2394.429999869317,12.69961,False,0,0,21,6,0,0,23.0,0.6166749577354588,289.94914052521216,-37.7271320961744,13.810816318836302,0.005281427443509807
4,6,302,5,-13,False,,,93.24415,78.0,2676.0050002485514,-15.244150000000005,False,0,0,22,6,0,0,23.0,0.6166749577354588,289.94914052521216,-37.7271320961744,3.488893884852743,0.004113976616460233
4,3,843,1,-16,False,,,19.19495,9.0,2177.059999667108,-10.194949999999999,False,0,0,23,6,0,0,23.0,0.6166749577354588,289.94914052521216,-37.7271320961744,-26.782698173113943,0.04322115070043981
4,7,302,5,-19,False,,,93.24415,65.0,3420.384999830276,-28.244150000000005,False,0,0,24,6,0,0,23.0,0.6166749577354588,289.94914052521216,-37.7271320961744,-9.511106115147257,0.0032807132540428677
4,3,425,4,-16,False,,,68.59844,62.0,3820.9849996492267,-6.5984399999999965,False,0,0,25,6,0,0,23.0,0.6166749577354588,289.94914052521216,-37.7271320961744,0.3788270086256773,0.00016383270319331888
4,4,710,2,-16,False,,,31.58063,44.0,2777.0850001834333,12.41937,False,0,0,26,6,0,0,23.0,0.6166749577354588,289.94914052521216,-37.7271320961744,1.7394782456983933,4.957618128702912e-05
4,2,425,4,-13,False,,,68.59844,73.0,2220.0949997641146,4.4015600000000035,False,0,0,27,6,0,0,23.0,0.6166749577354588,289.94914052521216,-37.7271320961744,11.378827008625677,0.005921916595446612
4,5,550,3,-19,False,,,50.0,56.0,5009.370000101626,6.0,False,0,0,28,6,0,0,23.0,0.6166749577354588,289.94914052521216,-37.7271320961744,4.105979873504957,0.0005103720534393165
4,2,302,5,-13,False,,,93.24415,89.0,3629.2900000698864,-4.244150000000005,False,0,0,29,6,0,0,23.0,0.6166749577354588,289.94914052521216,-37.7271320961744,14.488893884852743,0.027848409250090064
4,7,774,2,-13,False,,,25.3549,60.0,4905.6000001728535,34.6451,False,0,0,30,6,0,0,23.0,0.6166749577354588,289.94914052521216,-37.7271320961744,20.995590196905738,0.01732162372846147
4,5,599,3,-16,False,,,43.84378,50.0,1240.1050003245473,6.156219999999998,False,0,1,31,6,0,0,23.0,0.6166749577354588,289.94914052521216,-37.7271320961744,1.325738576480802,5.920131919310099e-05
4,6,329,5,-19,False,,,87.0672,64.0,2021.0750000551343,-23.0672,False,0,1,32,6,0,0,23.0,0.6166749577354588,289.94914052521216,-37.7271320961744,-7.280504125031484,0.0012782266400455293
4,7,710,2,-19,False,,,31.58063,36.0,3434.510000050068,4.419370000000001,False,0,1,33,6,0,0,23.0,0.6166749577354588,289.94914052521216,-37.7271320961744,-6.260521754301607,0.001566650625655627
4,6,599,3,-13,False,,,43.84378,69.0,2590.3449999168515,25.156219999999998,False,0,1,34,6,0,0,23.0,0.6166749577354588,289.94914052521216,-37.7271320961744,20.325738576480802,0.010138641308677076
4,4,1000,1,-16,False,,,6.87518,41.0,14227.634999901056,34.12482,False,0,1,35,6,0,0,23.0,0.6166749577354588,289.94914052521216,-37.7271320961744,11.66065537299297,0.007982452362787112
4,6,710,2,-16,False,,,31.58063,38.0,4810.575000010431,6.419370000000001,False,0,1,36,6,0,0,23.0,0.6166749577354588,289.94914052521216,-37.7271320961744,-4.260521754301607,0.0007798304426844393
4,7,390,4,-13,False,,,74.79787,62.0,3258.739999961108,-12.797870000000003,False,0,1,37,6,0,0,23.0,0.6166749577354588,289.94914052521216,-37.7271320961744,-2.8635343931324684,1.844020262205093e-05
4,2,843,1,-13,False,,,19.19495,23.0,2938.9349999837577,3.8050500000000014,False,0,1,38,6,0,0,23.0,0.6166749577354588,289.94914052521216,-37.7271320961744,-12.782698173113943,0.010881792679391619
4,3,599,3,-19,False,,,43.84378,50.0,1975.205000024289,6.156219999999998,False,0,1,39,6,0,0,23.0,0.6166749577354588,289.94914052521216,-37.7271320961744,1.325738576480802,5.920131919310099e-05
4,5,918,1,-13,False,,,13.04687,50.0,1916.0199998877943,36.95313,False,0,1,40,6,0,0,23.0,0.6166749577354588,289.94914052521216,-37.7271320961744,17.432801616903404,0.017162780628337683
4,4,652,2,-13,False,,,37.72798,50.0,2069.0750000067055,12.272019999999998,False,0,1,41,6,0,0,23.0,0.6166749577354588,289.94914052521216,-37.7271320961744,4.524356651691264,0.0005317742680525822
4,7,550,3,-13,False,,,50.0,50.0,1509.2400000430644,0.0,False,0,1,42,6,0,0,23.0,0.6166749577354588,289.94914052521216,-37.7271320961744,-1.8940201264950431,3.587742903563716e-05
4,4,358,5,-19,False,,,80.9736,60.0,3753.7249997258186,-20.973600000000005,False,0,1,43,6,0,0,23.0,0.6166749577354588,289.94914052521216,-37.7271320961744,-8.093495751362,0.001653725060423296
4,2,390,4,-16,False,,,74.79787,64.0,2107.599999755621,-10.797870000000003,False,0,1,44,6,0,0,23.0,0.6166749577354588,289.94914052521216,-37.7271320961744,-0.8635343931324684,7.788757871015222e-05
4,3,302,5,-19,False,,,93.24415,79.0,9916.749999858439,-14.244150000000005,False,0,1,45,6,0,0,23.0,0.6166749577354588,289.94914052521216,-37.7271320961744,4.488893884852743,0.005399327930325775
4,4,599,3,-16,False,,,43.84378,47.0,3012.7449999563396,3.1562199999999976,False,0,1,46,6,0,0,23.0,0.6166749577354588,289.94914052521216,-37.7271320961744,-1.674261423519198,4.8852150421594396e-05
4,5,425,4,-13,False,,,68.59844,50.0,2264.685000292957,-18.598439999999997,False,0,1,47,6,0,0,23.0,0.6166749577354588,289.94914052521216,-37.7271320961744,-11.621172991374323,0.0032703263224309336
4,2,504,3,-13,False,,,56.30039,50.0,2223.964999895543,-6.30039,False,0,1,48,6,0,0,23.0,0.6166749577354588,289.94914052521216,-37.7271320961744,-5.189183681163698,0.00041326352346027234
4,3,463,4,-13,False,,,62.42097,81.0,4034.460000228137,18.579030000000003,False,0,1,49,6,0,0,23.0,0.6166749577354588,289.94914052521216,-37.7271320961744,22.609698814562556,0.015996147845466237
4,5,302,5,-19,False,,,93.24415,84.0,2643.894999753684,-9.244150000000005,False,0,1,50,6,0,0,23.0,0.6166749577354588,289.94914052521216,-37.7271320961744,9.488893884852743,0.014443057639955905
4,6,425,4,-19,False,,,68.59844,50.0,1716.1399996839464,-18.598439999999997,False,0,1,51,6,0,0,23.0,0.6166749577354588,289.94914052521216,-37.7271320961744,-11.621172991374323,0.0032703263224309336
4,7,358,5,-13,False,,,80.9736,72.0,2885.9049999155104,-8.973600000000005,False,0,1,52,6,0,0,23.0,0.6166749577354588,289.94914052521216,-37.7271320961744,3.906504248638001,0.0023206089285206853
4,6,918,1,-13,False,,,13.04687,30.0,2492.5800003111362,16.95313,False,0,1,53,6,0,0,23.0,0.6166749577354588,289.94914052521216,-37.7271320961744,-2.5671983830965956,0.0012674245041951477
4,3,652,2,-16,False,,,37.72798,25.0,2692.9600001312792,-12.727980000000002,False,0,1,54,6,0,0,23.0,0.6166749577354588,289.94914052521216,-37.7271320961744,-20.475643348308736,0.01176719058562258
4,7,1000,1,-16,False,,,6.87518,36.0,3790.255000349134,29.12482,False,0,1,55,6,0,0,23.0,0.6166749577354588,289.94914052521216,-37.7271320961744,6.66065537299297,0.001817358328866463
4,5,774,2,-19,False,,,25.3549,50.0,2269.8300001211464,24.6451,False,0,1,56,6,0,0,23.0,0.6166749577354588,289.94914052521216,-37.7271320961744,10.995590196905738,0.004360476066293093
4,3,1000,1,-13,False,,,6.87518,43.0,3492.214999627322,36.12482,False,0,1,57,6,0,0,23.0,0.6166749577354588,289.94914052521216,-37.7271320961744,13.66065537299297,0.011670525192751031
4,2,710,2,-16,False,,,31.58063,50.0,1173.7899999134243,18.41937,False,0,1,58,6,0,0,23.0,0.6166749577354588,289.94914052521216,-37.7271320961744,7.739478245698393,0.0017646313511638463
4,4,390,4,-19,False,,,74.79787,65.0,3578.220000024885,-9.797870000000003,False,0,1,59,6,0,0,23.0,0.6166749577354588,289.94914052521216,-37.7271320961744,0.13646560686753162,0.00023670418842712854
4,2,358,5,-19,False,,,80.9736,57.0,6073.399999644607,-23.973600000000005,False,0,1,60,6,0,0,23.0,0.6166749577354588,289.94914052521216,-37.7271320961744,-11.093495751362,0.003953353382706607
4,7,652,2,-16,False,,,37.72798,46.0,4660.979999694973,8.272019999999998,False,0,2,61,6,0,0,23.0,0.6166749577354588,289.94914052521216,-37.7271320961744,0.5243566516912637,4.057505788768885e-06
4,6,390,4,-13,False,,,74.79787,60.0,2710.1650000549853,-14.797870000000003,False,0,2,62,6,0,0,23.0,0.6166749577354588,289.94914052521216,-37.7271320961744,-4.863534393132468,0.0003032406176617516
4,2,550,3,-19,False,,,50.0,50.0,2955.689999740571,0.0,False,0,2,63,6,0,0,23.0,0.6166749577354588,289.94914052521216,-37.7271320961744,-1.8940201264950431,3.587742903563716e-05
4,4,774,2,-19,False,,,25.3549,50.0,3325.4399998113513,24.6451,False,0,2,64,6,0,0,23.0,0.6166749577354588,289.94914052521216,-37.7271320961744,10.995590196905738,0.004360476066293093
4,5,504,3,-13,False,,,56.30039,50.0,1296.5299999341369,-6.30039,False,0,2,65,6,0,0,23.0,0.6166749577354588,289.94914052521216,-37.7271320961744,-5.189183681163698,0.00041326352346027234
4,4,918,1,-13,False,,,13.04687,50.0,1645.7599997520447,36.95313,False,0,2,66,6,0,0,23.0,0.6166749577354588,289.94914052521216,-37.7271320961744,17.432801616903404,0.017162780628337683
4,5,329,5,-16,False,,,87.0672,59.0,3748.575000092387,-28.0672,False,0,2,67,6,0,0,23.0,0.6166749577354588,289.94914052521216,-37.7271320961744,-12.280504125031484,0.005988617888416186
4,3,390,4,-19,False,,,74.79787,54.0,11631.100000347942,-20.797870000000003,False,0,2,68,6,0,0,23.0,0.6166749577354588,289.94914052521216,-37.7271320961744,-10.863534393132468,0.003223128609547665
4,6,504,3,-19,False,,,56.30039,53.0,2863.3549995720387,-3.30039,False,0,2,69,6,0,0,23.0,0.6166749577354588,289.94914052521216,-37.7271320961744,-2.1891836811636978,3.185821351004903e-05
4,2,463,4,-19,False,,,62.42097,55.0,4400.280000176281,-7.420969999999997,False,0,2,70,6,0,0,23.0,0.6166749577354588,289.94914052521216,-37.7271320961744,-3.390301185437444,0.0001070538813822164
4,7,918,1,-13,False,,,13.04687,50.0,1784.684999845922,36.95313,False,0,2,71,6,0,0,23.0,0.6166749577354588,289.94914052521216,-37.7271320961744,17.432801616903404,0.017162780628337683
4,2,329,5,-16,False,,,87.0672,64.0,3395.0700000859797,-23.0672,False,0,2,72,6,0,0,23.0,0.6166749577354588,289.94914052521216,-37.7271320961744,-7.280504125031484,0.0012782266400455293
4,6,843,1,-16,False,,,19.19495,45.0,3216.200000140816,25.80505,False,0,2,73,6,0,0,23.0,0.6166749577354588,289.94914052521216,-37.7271320961744,9.217301826886057,0.003416932242274654
4,3,358,5,-16,False,,,80.9736,61.0,2705.330000258982,-19.973600000000005,False,0,2,74,6,0,0,23.0,0.6166749577354588,289.94914052521216,-37.7271320961744,-7.093495751361999,0.0011064133342673177
4,5,652,2,-16,False,,,37.72798,50.0,1875.9400001727045,12.272019999999998,False,0,2,75,6,0,0,23.0,0.6166749577354588,289.94914052521216,-37.7271320961744,4.524356651691264,0.0005317742680525822
4,6,358,5,-16,False,,,80.9736,59.0,3117.2650000080466,-21.973600000000005,False,0,2,76,6,0,0,23.0,0.6166749577354588,289.94914052521216,-37.7271320961744,-9.093495751362,0.0023106523105485034
4,7,599,3,-16,False,,,43.84378,50.0,3379.2849997989833,6.156219999999998,False,0,2,77,6,0,0,23.0,0.6166749577354588,289.94914052521216,-37.7271320961744,1.325738576480802,5.920131919310099e-05
4,3,918,1,-19,False,,,13.04687,50.0,1387.2799999080598,36.95313,False,0,2,78,6,0,0,23.0,0.6166749577354588,289.94914052521216,-37.7271320961744,17.432801616903404,0.017162780628337683
4,4,504,3,-19,False,,,56.30039,50.0,1000.50999969244,-6.30039,False,0,2,79,6,0,0,23.0,0.6166749577354588,289.94914052521216,-37.7271320961744,-5.189183681163698,0.00041326352346027234
4,5,463,4,-19,False,,,62.42097,50.0,998.7200000323355,-12.420969999999997,False,0,2,80,6,0,0,23.0,0.6166749577354588,289.94914052521216,-37.7271320961744,-8.390301185437444,0.0013438614528998106
4,2,1000,1,-19,False,,,6.87518,19.0,3369.5399998687208,12.12482,False,0,2,81,6,0,0,23.0,0.6166749577354588,289.94914052521216,-37.7271320961744,-10.33934462700703,0.013501836537248825
4,3,504,3,-13,False,,,56.30039,71.0,2228.6649998277426,14.69961,False,0,2,82,6,0,0,23.0,0.6166749577354588,289.94914052521216,-37.7271320961744,15.810816318836302,0.006800170675517783
4,4,463,4,-13,False,,,62.42097,66.0,3445.07999997586,3.579030000000003,False,0,2,83,6,0,0,23.0,0.6166749577354588,289.94914052521216,-37.7271320961744,7.609698814562556,0.002260031103859502
4,3,774,2,-19,False,,,25.3549,17.0,1857.2149998508394,-8.3549,False,0,2,84,6,0,0,23.0,0.6166749577354588,289.94914052521216,-37.7271320961744,-22.004409803094262,0.022611930108106783
4,7,329,5,-16,False,,,87.0672,17.0,3086.769999936223,-70.0672,False,0,2,85,6,0,0,23.0,0.6166749577354588,289.94914052521216,-37.7271320961744,-54.280504125031484,0.18242348928536242
4,2,774,2,-13,False,,,25.3549,11.0,2020.6699999980628,-14.3549,False,0,2,86,6,0,0,23.0,0.6166749577354588,289.94914052521216,-37.7271320961744,-28.004409803094262,0.03599340552269363
4,5,843,1,-16,False,,,19.19495,24.0,2943.334999959916,4.805050000000001,False,0,2,87,6,0,0,23.0,0.6166749577354588,289.94914052521216,-37.7271320961744,-11.782698173113943,0.009392939495993461
4,7,463,4,-19,False,,,62.42097,50.0,1910.3500000201166,-12.420969999999997,False,0,2,88,6,0,0,23.0,0.6166749577354588,289.94914052521216,-37.7271320961744,-8.390301185437444,0.0013438614528998106
4,6,774,2,-13,False,,,25.3549,50.0,3953.999999910593,24.6451,False,0,2,89,6,0,0,23.0,0.6166749577354588,289.94914052521216,-37.7271320961744,10.995590196905738,0.004360476066293093
4,4,329,5,-13,False,,,87.0672,66.0,3056.570000015199,-21.0672,False,0,2,90,6,0,0,23.0,0.6166749577354588,289.94914052521216,-37.7271320961744,-5.280504125031484,0.0003647622322620378
8,4,425,4,-19,False,,,68.59844,100.0,1505.170000018552,31.401560000000003,False,0,0,1,6,0,0,42.0,0.9272330846335461,572.3293219204845,-83.35484567781883,32.14163678360909,0.05460669799350568
8,3,329,5,-13,False,,,87.0672,100.0,1505.0200000405312,12.9328,False,0,0,2,6,0,0,42.0,0.9272330846335461,572.3293219204845,-83.35484567781883,10.80017743428877,0.012149965405887668
8,7,1000,1,-16,False,,,6.87518,0.0,1785.0350000080653,-6.87518,False,0,0,3,6,0,0,42.0,0.9272330846335461,572.3293219204845,-83.35484567781883,3.465553339209853,0.0003324234415100623
8,3,504,3,-13,False,,,56.30039,50.0,332.4150000116788,-6.30039,False,0,0,4,6,0,0,42.0,0.9272330846335461,572.3293219204845,-83.35484567781883,-3.6474373769377593,0.0008505147372264819
8,7,774,2,-13,False,,,25.3549,0.0,1331.1049999902025,-25.3549,False,0,0,5,6,0,0,42.0,0.9272330846335461,572.3293219204845,-83.35484567781883,-17.888574882492538,0.026650478198854247
8,6,463,4,-13,False,,,62.42097,100.0,6635.0600000005215,37.57903,False,0,0,6,6,0,0,42.0,0.9272330846335461,572.3293219204845,-83.35484567781883,39.27996948544711,0.06660291292584551
8,2,504,3,-13,False,,,56.30039,50.0,567.1549999970011,-6.30039,False,0,0,7,6,0,0,42.0,0.9272330846335461,572.3293219204845,-83.35484567781883,-3.6474373769377593,0.0008505147372264819
8,4,329,5,-16,False,,,87.0672,100.0,1490.8350000041537,12.9328,False,0,0,8,6,0,0,42.0,0.9272330846335461,572.3293219204845,-83.35484567781883,10.80017743428877,0.012149965405887656
8,7,463,4,-16,False,,,62.42097,50.0,2947.0149999833666,-12.420969999999997,False,0,0,9,6,0,0,42.0,0.9272330846335461,572.3293219204845,-83.35484567781883,-10.720030514552889,0.006106411609414398
8,4,550,3,-16,False,,,50.0,50.0,194.99499996891245,0.0,False,0,0,10,6,0,0,42.0,0.9272330846335461,572.3293219204845,-83.35484567781883,3.6329424007350397,0.00023157553968525181
8,7,329,5,-13,False,,,87.0672,100.0,1897.274999995716,12.9328,False,0,0,11,6,0,0,42.0,0.9272330846335461,572.3293219204845,-83.35484567781883,10.80017743428877,0.012149965405887656
8,3,425,4,-19,False,,,68.59844,75.0,1499.3050000048243,6.4015600000000035,False,0,0,12,6,0,0,42.0,0.9272330846335461,572.3293219204845,-83.35484567781883,7.141636783609087,0.0022438041158638496
8,2,774,2,-13,False,,,25.3549,0.0,2158.980000007432,-25.3549,False,0,0,13,6,0,0,42.0,0.9272330846335461,572.3293219204845,-83.35484567781883,-17.888574882492538,0.026650478198854247
8,6,329,5,-16,False,,,87.0672,82.0,1603.1099999672733,-5.0672,False,0,0,14,6,0,0,42.0,0.9272330846335461,572.3293219204845,-83.35484567781883,-7.19982256571123,0.006608778206192003
8,4,652,2,-13,False,,,37.72798,26.0,2052.540000004228,-11.727980000000002,False,0,0,15,6,0,0,42.0,0.9272330846335461,572.3293219204845,-83.35484567781883,-6.186207475699227,0.0025754280004808227
8,7,550,3,-16,False,,,50.0,37.0,2135.000000009313,-13.0,False,0,0,16,6,0,0,42.0,0.9272330846335461,572.3293219204845,-83.35484567781883,-9.36705759926496,0.004084772416605994
8,4,1000,1,-19,False,,,6.87518,0.0,3873.1100000441074,-6.87518,False,0,0,17,6,0,0,42.0,0.9272330846335461,572.3293219204845,-83.35484567781883,3.465553339209853,0.0003324234415100623
8,6,599,3,-13,False,,,43.84378,32.0,1735.240000009071,-11.843780000000002,False,0,0,18,6,0,0,42.0,0.9272330846335461,572.3293219204845,-83.35484567781883,-7.253278340290223,0.002826945332986841
8,2,1000,1,-13,False,,,6.87518,0.0,1584.999999962747,-6.87518,False,0,0,19,6,0,0,42.0,0.9272330846335461,572.3293219204845,-83.35484567781883,3.465553339209853,0.0003324234415100623
8,6,774,2,-13,False,,,25.3549,28.0,2317.0300000347197,2.6450999999999993,False,0,0,20,6,0,0,42.0,0.9272330846335461,572.3293219204845,-83.35484567781883,10.111425117507462,0.005095042341178189
8,3,843,1,-19,False,,,19.19495,0.0,1338.770000031218,-19.19495,False,0,0,21,6,0,0,42.0,0.9272330846335461,572.3293219204845,-83.35484567781883,-10.770480799675292,0.01391813318495663
8,5,652,2,-16,False,,,37.72798,38.0,1412.7900000312366,0.2720199999999977,False,0,0,22,6,0,0,42.0,0.9272330846335461,572.3293219204845,-83.35484567781883,5.813792524300773,0.0008957817313393569
8,6,843,1,-19,False,,,19.19495,31.0,1771.2099999771453,11.805050000000001,False,0,0,23,6,0,0,42.0,0.9272330846335461,572.3293219204845,-83.35484567781883,20.22951920032471,0.030660755564887968
8,5,504,3,-19,False,,,56.30039,66.0,1347.1900000004098,9.69961,False,0,0,24,6,0,0,42.0,0.9272330846335461,572.3293219204845,-83.35484567781883,12.35256262306224,0.005028504681899535
8,3,710,2,-16,False,,,31.58063,34.0,2073.1200000154786,2.4193700000000007,False,0,0,25,6,0,0,42.0,0.9272330846335461,572.3293219204845,-83.35484567781883,8.917326490802893,0.0030699506792772426
8,5,390,4,-13,False,,,74.79787,100.0,1263.4549999493174,25.202129999999997,False,0,0,26,6,0,0,42.0,0.9272330846335461,572.3293219204845,-83.35484567781883,24.97791881039288,0.04151660469157118
8,2,358,5,-19,False,,,80.9736,100.0,2351.100000028964,19.026399999999995,False,0,0,27,6,0,0,42.0,0.9272330846335461,572.3293219204845,-83.35484567781883,17.841597664268946,0.026744065551799964
8,5,1000,1,-16,False,,,6.87518,0.0,1695.0899999937974,-6.87518,False,0,0,28,6,0,0,42.0,0.9272330846335461,572.3293219204845,-83.35484567781883,3.465553339209853,0.0003324234415100623
8,2,425,4,-13,False,,,68.59844,67.0,1570.899999991525,-1.5984399999999965,False,0,0,29,6,0,0,42.0,0.9272330846335461,572.3293219204845,-83.35484567781883,-0.858363216390913,0.00015008736607383604
8,5,329,5,-19,False,,,87.0672,77.0,1791.0249999840744,-10.0672,False,0,0,30,6,0,0,42.0,0.9272330846335461,572.3293219204845,-83.35484567781883,-12.19982256571123,0.018088836709720762
8,4,463,4,-13,False,,,62.42097,50.0,883.109999995213,-12.420969999999997,False,0,1,31,6,0,0,42.0,0.9272330846335461,572.3293219204845,-83.35484567781883,-10.720030514552889,0.006106411609414398
8,6,918,1,-13,False,,,13.04687,27.0,1247.1350000123493,13.95313,False,0,1,32,6,0,0,42.0,0.9272330846335461,572.3293219204845,-83.35484567781883,23.333888758304788,0.05242997877064504
8,5,425,4,-19,False,,,68.59844,66.0,1603.4699999727309,-2.5984399999999965,False,0,1,33,6,0,0,42.0,0.9272330846335461,572.3293219204845,-83.35484567781883,-1.858363216390913,0.00038822763454515584
8,4,918,1,-16,False,,,13.04687,0.0,1903.1200000317767,-13.04687,False,0,1,34,6,0,0,42.0,0.9272330846335461,572.3293219204845,-83.35484567781883,-3.6661112416952117,0.0034141344474129223
8,6,390,4,-19,False,,,74.79787,63.0,1415.0200000149198,-11.797870000000003,False,0,1,35,6,0,0,42.0,0.9272330846335461,572.3293219204845,-83.35484567781883,-12.022081189607121,0.011317856873394129
8,4,774,2,-16,False,,,25.3549,29.0,1389.049999997951,3.6450999999999993,False,0,1,36,6,0,0,42.0,0.9272330846335461,572.3293219204845,-83.35484567781883,11.111425117507462,0.0063615273369293
8,3,390,4,-13,False,,,74.79787,72.0,1050.9799999999814,-2.797870000000003,False,0,1,37,6,0,0,42.0,0.9272330846335461,572.3293219204845,-83.35484567781883,-3.022081189607121,0.0009576273494704635
8,4,358,5,-13,False,,,80.9736,68.0,1014.9799999780953,-12.973600000000005,False,0,1,38,6,0,0,42.0,0.9272330846335461,572.3293219204845,-83.35484567781883,-14.158402335731054,0.019371700956973992
8,6,504,3,-19,False,,,56.30039,50.0,133.1849999842234,-6.30039,False,0,1,39,6,0,0,42.0,0.9272330846335461,572.3293219204845,-83.35484567781883,-3.6474373769377593,0.0008505147372264819
8,7,918,1,-13,False,,,13.04687,21.0,2255.055000016,7.95313,False,0,1,40,6,0,0,42.0,0.9272330846335461,572.3293219204845,-83.35484567781883,17.333888758304788,0.02726059127666196
8,2,390,4,-16,False,,,74.79787,100.0,1633.0799999996088,25.202129999999997,False,0,1,41,6,0,0,42.0,0.9272330846335461,572.3293219204845,-83.35484567781883,24.97791881039288,0.04151660469157118
8,5,302,5,-16,False,,,93.24415,100.0,1564.879999961704,6.755849999999995,False,0,1,42,6,0,0,42.0,0.9272330846335461,572.3293219204845,-83.35484567781883,3.66244086724501,0.0015863038012807404
8,6,710,2,-16,False,,,31.58063,28.0,1465.074999956414,-3.5806299999999993,False,0,1,43,6,0,0,42.0,0.9272330846335461,572.3293219204845,-83.35484567781883,2.9173264908028926,0.00011505700946192596
8,2,302,5,-16,False,,,93.24415,100.0,1486.510000017006,6.755849999999995,False,0,1,44,6,0,0,42.0,0.9272330846335461,572.3293219204845,-83.35484567781883,3.66244086724501,0.0015863038012807404
8,5,774,2,-19,False,,,25.3549,24.0,1806.464999972377,-1.3549000000000007,False,0,1,45,6,0,0,42.0,0.9272330846335461,572.3293219204845,-83.35484567781883,6.111425117507462,0.0014334623517379573
8,6,358,5,-19,False,,,80.9736,69.0,1427.1050000097603,-11.973600000000005,False,0,1,46,6,0,0,42.0,0.9272330846335461,572.3293219204845,-83.35484567781883,-13.158402335731054,0.016827877310211733
8,7,710,2,-19,False,,,31.58063,21.0,2248.9499999792315,-10.58063,False,0,1,47,6,0,0,42.0,0.9272330846335461,572.3293219204845,-83.35484567781883,-4.082673509197107,0.0017140418329948193
8,2,550,3,-19,False,,,50.0,21.0,2803.0300000100397,-29.0,False,0,1,48,6,0,0,42.0,0.9272330846335461,572.3293219204845,-83.35484567781883,-25.36705759926496,0.0260185884466567
8,3,358,5,-19,False,,,80.9736,67.0,2071.090000041295,-13.973600000000005,False,0,1,49,6,0,0,42.0,0.9272330846335461,572.3293219204845,-83.35484567781883,-15.158402335731054,0.022094505896662082
8,5,550,3,-13,False,,,50.0,39.0,2567.434999975376,-11.0,False,0,1,50,6,0,0,42.0,0.9272330846335461,572.3293219204845,-83.35484567781883,-7.36705759926496,0.00267686247202694
8,3,1000,1,-13,False,,,6.87518,0.0,3658.8750000228174,-6.87518,False,0,1,51,6,0,0,42.0,0.9272330846335461,572.3293219204845,-83.35484567781883,3.465553339209853,0.0003324234415100623
8,7,504,3,-19,False,,,56.30039,50.0,454.98500001849607,-6.30039,False,0,1,52,6,0,0,42.0,0.9272330846335461,572.3293219204845,-83.35484567781883,-3.6474373769377593,0.0008505147372264819
8,5,918,1,-13,False,,,13.04687,0.0,1337.07000000868,-13.04687,False,0,1,53,6,0,0,42.0,0.9272330846335461,572.3293219204845,-83.35484567781883,-3.6661112416952117,0.0034141344474129223
8,4,599,3,-19,False,,,43.84378,50.0,1107.064999989234,6.156219999999998,False,0,1,54,6,0,0,42.0,0.9272330846335461,572.3293219204845,-83.35484567781883,10.746721659709777,0.003529430676249973
8,2,918,1,-16,False,,,13.04687,15.0,2186.809999984689,1.9531299999999998,False,0,1,55,6,0,0,42.0,0.9272330846335461,572.3293219204845,-83.35484567781883,11.333888758304788,0.010249476722322284
8,3,774,2,-13,False,,,25.3549,50.0,1542.4699999857694,24.6451,False,0,1,56,6,0,0,42.0,0.9272330846335461,572.3293219204845,-83.35484567781883,32.111425117507466,0.06539842809903605
8,7,358,5,-16,False,,,80.9736,72.0,1198.995000042487,-8.973600000000005,False,0,1,57,6,0,0,42.0,0.9272330846335461,572.3293219204845,-83.35484567781883,-10.158402335731054,0.010270294127480052
8,3,599,3,-16,False,,,43.84378,28.0,1258.8049999903888,-15.843780000000002,False,0,1,58,6,0,0,42.0,0.9272330846335461,572.3293219204845,-83.35484567781883,-11.253278340290223,0.0061131081102798685
8,2,652,2,-19,False,,,37.72798,30.0,1153.070000000298,-7.727980000000002,False,0,1,59,6,0,0,42.0,0.9272330846335461,572.3293219204845,-83.35484567781883,-2.186207475699227,0.0005691045497333703
8,7,390,4,-13,False,,,74.79787,71.0,1142.3300000024028,-3.797870000000003,False,0,1,60,6,0,0,42.0,0.9272330846335461,572.3293219204845,-83.35484567781883,-4.022081189607121,0.0015466728240301768
8,2,599,3,-16,False,,,43.84378,26.0,1076.9450000370853,-17.843780000000002,False,0,2,61,6,0,0,42.0,0.9272330846335461,572.3293219204845,-83.35484567781883,-13.253278340290223,0.008225590039565227
8,4,710,2,-19,False,,,31.58063,11.0,1147.095000022091,-20.58063,False,0,2,62,6,0,0,42.0,0.9272330846335461,572.3293219204845,-83.35484567781883,-14.082673509197107,0.01342557324222455
8,7,425,4,-19,False,,,68.59844,68.0,1571.1749999900348,-0.5984399999999965,False,0,2,63,6,0,0,42.0,0.9272330846335461,572.3293219204845,-83.35484567781883,0.14163678360908705,2.3025955868087665e-05
8,5,843,1,-19,False,,,19.19495,0.0,1337.5399999786168,-19.19495,False,0,2,64,6,0,0,42.0,0.9272330846335461,572.3293219204845,-83.35484567781883,-10.770480799675292,0.01391813318495663
8,6,550,3,-16,False,,,50.0,50.0,2192.9499999969266,0.0,False,0,2,65,6,0,0,42.0,0.9272330846335461,572.3293219204845,-83.35484567781883,3.6329424007350397,0.00023157553968525181
8,2,843,1,-19,False,,,19.19495,24.0,1852.985000004992,4.805050000000001,False,0,2,66,6,0,0,42.0,0.9272330846335461,572.3293219204845,-83.35484567781883,13.229519200324708,0.011864305162989029
8,7,599,3,-13,False,,,43.84378,50.0,281.14999999525025,6.156219999999998,False,0,2,67,6,0,0,42.0,0.9272330846335461,572.3293219204845,-83.35484567781883,10.746721659709777,0.003529430676249973
8,6,302,5,-13,False,,,93.24415,100.0,1586.974999983795,6.755849999999995,False,0,2,68,6,0,0,42.0,0.9272330846335461,572.3293219204845,-83.35484567781883,3.66244086724501,0.0015863038012807404
8,3,652,2,-19,False,,,37.72798,25.0,1599.1950000170618,-12.727980000000002,False,0,2,69,6,0,0,42.0,0.9272330846335461,572.3293219204845,-83.35484567781883,-7.186207475699227,0.0033030153258291916
8,7,302,5,-19,False,,,93.24415,100.0,1433.0400000326335,6.755849999999995,False,0,2,70,6,0,0,42.0,0.9272330846335461,572.3293219204845,-83.35484567781883,3.66244086724501,0.0015863038012807404
8,3,918,1,-16,False,,,13.04687,0.0,1224.9949999968521,-13.04687,False,0,2,71,6,0,0,42.0,0.9272330846335461,572.3293219204845,-83.35484567781883,-3.6661112416952117,0.0034141344474129223
8,5,358,5,-13,False,,,80.9736,74.0,2209.260000032373,-6.973600000000005,False,0,2,72,6,0,0,42.0,0.9272330846335461,572.3293219204845,-83.35484567781883,-8.158402335731054,0.00679347847028814
8,7,843,1,-19,False,,,19.19495,21.0,1879.1249999776483,1.8050500000000014,False,0,2,73,6,0,0,42.0,0.9272330846335461,572.3293219204845,-83.35484567781883,10.229519200324708,0.0064900868213880305
8,3,302,5,-16,False,,,93.24415,100.0,1672.8749999892898,6.755849999999995,False,0,2,74,6,0,0,42.0,0.9272330846335461,572.3293219204845,-83.35484567781883,3.66244086724501,0.0015863038012807404
8,6,425,4,-16,False,,,68.59844,76.0,1939.0450000064448,7.4015600000000035,False,0,2,75,6,0,0,42.0,0.9272330846335461,572.3293219204845,-83.35484567781883,8.141636783609087,0.0030053735717826733
8,7,652,2,-16,False,,,37.72798,27.0,1697.1599999815226,-10.727980000000002,False,0,2,76,6,0,0,42.0,0.9272330846335461,572.3293219204845,-83.35484567781883,-5.186207475699227,0.0019382432601970567
8,2,463,4,-19,False,,,62.42097,69.0,1433.9150000014342,6.579030000000003,False,0,2,77,6,0,0,42.0,0.9272330846335461,572.3293219204845,-83.35484567781883,8.279969485447111,0.0024621109280037
8,6,652,2,-19,False,,,37.72798,31.0,1367.9099999717437,-6.727980000000002,False,0,2,78,6,0,0,42.0,0.9272330846335461,572.3293219204845,-83.35484567781883,-1.1862074756992271,0.0002935301497080121
8,4,302,5,-19,False,,,93.24415,100.0,1847.0450000022538,6.755849999999995,False,0,2,79,6,0,0,42.0,0.9272330846335461,572.3293219204845,-83.35484567781883,3.66244086724501,0.0015863038012807404
8,2,710,2,-16,False,,,31.58063,0.0,1491.344999987632,-31.58063,False,0,2,80,6,0,0,42.0,0.9272330846335461,572.3293219204845,-83.35484567781883,-25.082673509197107,0.03911825052041381
8,4,390,4,-16,False,,,74.79787,50.0,1569.3650000030175,-24.797870000000003,False,0,2,81,6,0,0,42.0,0.9272330846335461,572.3293219204845,-83.35484567781883,-25.02208118960712,0.04637739107913758
8,5,710,2,-13,False,,,31.58063,23.0,2083.214999991469,-8.58063,False,0,2,82,6,0,0,42.0,0.9272330846335461,572.3293219204845,-83.35484567781883,-2.0826735091971074,0.0007026438865292934
8,4,843,1,-13,False,,,19.19495,18.0,1453.3599999849685,-1.1949499999999986,False,0,2,83,6,0,0,42.0,0.9272330846335461,572.3293219204845,-83.35484567781883,7.229519200324708,0.002724710435314734
8,3,463,4,-16,False,,,62.42097,61.0,1556.8850000272505,-1.420969999999997,False,0,2,84,6,0,0,42.0,0.9272330846335461,572.3293219204845,-83.35484567781883,0.2799694854471113,1.743368692433759e-05
8,4,504,3,-13,False,,,56.30039,50.0,519.2649999517016,-6.30039,False,0,2,85,6,0,0,42.0,0.9272330846335461,572.3293219204845,-83.35484567781883,-3.6474373769377593,0.0008505147372264819
8,6,1000,1,-16,False,,,6.87518,0.0,1467.0850000111386,-6.87518,False,0,2,86,6,0,0,42.0,0.9272330846335461,572.3293219204845,-83.35484567781883,3.465553339209853,0.0003324234415100623
8,5,599,3,-16,False,,,43.84378,42.0,1416.7000000015832,-1.8437800000000024,False,0,2,87,6,0,0,42.0,0.9272330846335461,572.3293219204845,-83.35484567781883,2.7467216597097774,8.787803054074997e-05
8,2,329,5,-13,False,,,87.0672,100.0,1248.940000019502,12.9328,False,0,2,88,6,0,0,42.0,0.9272330846335461,572.3293219204845,-83.35484567781883,10.80017743428877,0.012149965405887656
8,5,463,4,-16,False,,,62.42097,67.0,1031.5049999626353,4.579030000000003,False,0,2,89,6,0,0,42.0,0.9272330846335461,572.3293219204845,-83.35484567781883,6.279969485447111,0.0013083343950176388
8,3,550,3,-19,False,,,50.0,45.0,1380.7899999665096,-5.0,False,0,2,90,6,0,0,42.0,0.9272330846335461,572.3293219204845,-83.35484567781883,-1.3670575992649603,0.00023155538385949387
6,2,358,5,-19,True,,,80.9736,58.0,4432.074999902397,-22.973600000000005,False,1,0,1,6,0,0,30.0,0.8911736761645627,468.6197356274255,-65.99554350150332,-22.53076511139284,0.046595599072595154
6,5,463,4,-19,True,,,62.42097,50.0,2161.5949999541044,-12.420969999999997,False,1,0,2,6,0,0,30.0,0.8911736761645627,468.6197356274255,-65.99554350150332,-13.5571028291236,0.009202963461629429
6,6,1000,1,-16,True,,,6.87518,0.0,2357.2200001217425,-6.87518,False,1,0,3,6,0,0,30.0,0.8911736761645627,468.6197356274255,-65.99554350150332,-12.73867161562067,0.03337075039431853
6,2,710,2,-13,True,,,31.58063,26.0,3116.009999997914,-5.580629999999999,False,1,0,4,6,0,0,30.0,0.8911736761645627,468.6197356274255,-65.99554350150332,-9.341505698560901,0.006703374520425832
6,7,1000,1,-19,True,,,6.87518,25.0,2734.3600001186132,18.12482,False,1,0,5,6,0,0,30.0,0.8911736761645627,468.6197356274255,-65.99554350150332,12.26132838437933,0.015020543319216352
6,6,599,3,-16,True,,,43.84378,50.0,1829.2950000613928,6.156219999999998,False,1,0,6,6,0,0,30.0,0.8911736761645627,468.6197356274255,-65.99554350150332,3.439029374496293,0.00024242138623616974
6,2,843,1,-16,True,,,19.19495,25.0,2185.6749998405576,5.805050000000001,False,1,0,7,6,0,0,30.0,0.8911736761645627,468.6197356274255,-65.99554350150332,0.9900603175764573,6.396494776481509e-05
6,5,550,3,-16,True,,,50.0,50.0,1849.0699999965727,0.0,False,1,0,8,6,0,0,30.0,0.8911736761645627,468.6197356274255,-65.99554350150332,-2.1932494057965073,0.0003476449249646015
6,7,390,4,-13,True,,,74.79787,98.0,2531.4650000073016,23.202129999999997,False,1,0,9,6,0,0,30.0,0.8911736761645627,468.6197356274255,-65.99554350150332,23.119361030764324,0.03933180771258802
6,5,918,1,-13,True,,,13.04687,40.0,3273.390000220388,26.95313,False,1,0,10,6,0,0,30.0,0.8911736761645627,468.6197356274255,-65.99554350150332,21.61488904111155,0.045504450550984225
6,3,504,3,-16,True,,,56.30039,56.0,3527.179999742657,-0.30039000000000016,False,1,0,11,6,0,0,30.0,0.8911736761645627,468.6197356274255,-65.99554350150332,-1.9574328364992795,0.0002664239574666436
6,6,329,5,-13,True,,,87.0672,99.0,1726.504999678582,11.9328,False,1,0,12,6,0,0,30.0,0.8911736761645627,468.6197356274255,-65.99554350150332,12.89424580043611,0.0209896643615758
6,3,463,4,-13,True,,,62.42097,73.0,2519.3150001578033,10.579030000000003,False,1,0,13,6,0,0,30.0,0.8911736761645627,468.6197356274255,-65.99554350150332,9.4428971708764,0.003873763439083582
6,5,652,2,-19,True,,,37.72798,35.0,1458.4599998779595,-2.7279800000000023,False,1,0,14,6,0,0,30.0,0.8911736761645627,468.6197356274255,-65.99554350150332,-5.965672849115023,0.0024318579281113278
6,7,599,3,-13,True,,,43.84378,50.0,2291.199999861419,6.156219999999998,False,1,0,15,6,0,0,30.0,0.8911736761645627,468.6197356274255,-65.99554350150332,3.439029374496293,0.00024242138623616974
6,4,425,4,-16,True,,,68.59844,82.0,3864.1900001093745,13.401560000000003,False,1,0,16,6,0,0,30.0,0.8911736761645627,468.6197356274255,-65.99554350150332,12.791178395302964,0.009225597488191935
6,6,710,2,-13,True,,,31.58063,35.0,1984.2000002972782,3.4193700000000007,False,1,0,17,6,0,0,30.0,0.8911736761645627,468.6197356274255,-65.99554350150332,-0.3415056985609013,0.0001777340693999384
6,5,329,5,-13,True,,,87.0672,100.0,1945.0349998660386,12.9328,False,1,0,18,6,0,0,30.0,0.8911736761645627,468.6197356274255,-65.99554350150332,13.89424580043611,0.02426108768352714
6,2,463,4,-19,True,,,62.42097,50.0,1175.2650002017617,-12.420969999999997,False,1,0,19,6,0,0,30.0,0.8911736761645627,468.6197356274255,-65.99554350150332,-13.5571028291236,0.009202963461629429
6,7,358,5,-13,True,,,80.9736,99.0,1590.1899999007583,18.026399999999995,False,1,0,20,6,0,0,30.0,0.8911736761645627,468.6197356274255,-65.99554350150332,18.46923488860716,0.03268954710898973
6,6,463,4,-13,True,,,62.42097,73.0,2190.7849996350706,10.579030000000003,False,1,0,21,6,0,0,30.0,0.8911736761645627,468.6197356274255,-65.99554350150332,9.4428971708764,0.003873763439083582
6,4,302,5,-13,True,,,93.24415,99.0,2857.2049997746944,5.755849999999995,False,1,0,22,6,0,0,30.0,0.8911736761645627,468.6197356274255,-65.99554350150332,7.242999009897588,0.009218495511860577
6,7,652,2,-13,True,,,37.72798,74.0,4041.1700000986457,36.27202,False,1,0,23,6,0,0,30.0,0.8911736761645627,468.6197356274255,-65.99554350150332,33.03432715088498,0.047892185440664856
6,3,1000,1,-19,True,,,6.87518,23.0,1689.7900002077222,16.12482,False,1,0,24,6,0,0,30.0,0.8911736761645627,468.6197356274255,-65.99554350150332,10.26132838437933,0.009631367321647181
6,4,652,2,-16,True,,,37.72798,50.0,1432.0450001396239,12.272019999999998,False,1,0,25,6,0,0,30.0,0.8911736761645627,468.6197356274255,-65.99554350150332,9.034327150884977,0.0028969500343289526
6,3,329,5,-16,True,,,87.0672,95.0,2064.3250001594424,7.9328,False,1,0,26,6,0,0,30.0,0.8911736761645627,468.6197356274255,-65.99554350150332,8.89424580043611,0.010272159636337451
6,4,599,3,-16,True,,,43.84378,37.0,1597.5000001490116,-6.843780000000002,False,1,0,27,6,0,0,30.0,0.8911736761645627,468.6197356274255,-65.99554350150332,-9.560970625503707,0.0045673535720086806
6,3,652,2,-16,True,,,37.72798,25.0,1786.1750000156462,-12.727980000000002,False,1,0,28,6,0,0,30.0,0.8911736761645627,468.6197356274255,-65.99554350150332,-15.965672849115023,0.013940997388386039
6,4,918,1,-19,True,,,13.04687,0.0,1742.9849999025464,-13.04687,False,1,0,29,6,0,0,30.0,0.8911736761645627,468.6197356274255,-65.99554350150332,-18.38511095888845,0.04934416952067894
6,2,504,3,-16,True,,,56.30039,67.0,1905.0600002519786,10.69961,False,1,0,30,6,0,0,30.0,0.8911736761645627,468.6197356274255,-65.99554350150332,9.04256716350072,0.002920461697289022
6,2,918,1,-19,True,"[70, 70, 70, 70, 70, 70, 70, 70, 70]","[107, 603, 1104, 1563, 1979, 2448, 2923, 3392, 3824]",13.04687,0.0,2664.014999754727,-13.04687,True,2,1,31,6,0,0,30.0,0.8911736761645627,468.6197356274255,-65.99554350150332,-18.38511095888845,0.04934416952067894
6,7,425,4,-16,True,"[70, 70, 70]","[325, 773, 1387]",68.59844,63.0,4782.354999799281,-5.5984399999999965,True,2,1,32,6,0,0,30.0,0.8911736761645627,468.6197356274255,-65.99554350150332,-6.208821604697036,0.002377682529270347
6,5,843,1,-16,True,,,19.19495,32.0,2534.53000029549,12.805050000000001,False,1,1,33,6,0,0,30.0,0.8911736761645627,468.6197356274255,-65.99554350150332,7.990060317576457,0.0035620895796851194
6,4,504,3,-19,True,,,56.30039,50.0,543.864999897778,-6.30039,False,1,1,34,6,0,0,30.0,0.8911736761645627,468.6197356274255,-65.99554350150332,-7.9574328364992795,0.0029923908767013787
6,3,918,1,-16,True,,,13.04687,24.0,2309.034999925643,10.95313,False,1,1,35,6,0,0,30.0,0.8911736761645627,468.6197356274255,-65.99554350150332,5.6148890411115495,0.0015316611710073371
6,2,599,3,-19,True,,,43.84378,39.0,3035.1549996994436,-4.843780000000002,False,1,1,36,6,0,0,30.0,0.8911736761645627,468.6197356274255,-65.99554350150332,-7.560970625503707,0.0030018969861295604
6,6,652,2,-16,True,,,37.72798,50.0,2523.64999987185,12.272019999999998,False,1,1,37,6,0,0,30.0,0.8911736761645627,468.6197356274255,-65.99554350150332,9.034327150884977,0.0028969500343289526
6,7,504,3,-16,True,"[70, 70, 70, 70]","[432, 981, 1541, 2149]",56.30039,50.0,1096.6699998825788,-6.30039,True,2,1,38,6,0,0,30.0,0.8911736761645627,468.6197356274255,-65.99554350150332,-7.9574328364992795,0.0029923908767013787
6,5,774,2,-16,True,"[70, 70, 70, 70, 70, 70]","[469, 1040, 1616, 2123, 2651, 3205]",25.3549,30.0,2464.6199997514486,4.645099999999999,True,2,1,39,6,0,0,30.0,0.8911736761645627,468.6197356274255,-65.99554350150332,0.3543653094413095,0.0001165691160504129
6,4,390,4,-13,True,"[70, 70, 70]","[432, 1024, 1488]",74.79787,100.0,2293.324999976903,25.202129999999997,True,2,1,40,6,0,0,30.0,0.8911736761645627,468.6197356274255,-65.99554350150332,25.119361030764324,0.04642622834577317
