subject,pitch,ioi,tempo,loudness,tap_condition,key_press,tap_times,true_score,response,rt,error,tapped,tap_type,block,trial,test_correct,test_incorrect,test_skipped,extreme_responses,pearsonr,intercept,slope,residual,cooks
1,5,710,2,-16,True,,,31.58063,24.0,3452.564999985043,-7.580629999999999,False,1,0,1,6,0,0,29.0,0.9229684665821254,51.159875190020855,33.64260002633651,-14.766365035895312,0.03326126820017093
1,6,1000,1,-16,True,,,6.87518,19.0,9667.070000024978,12.12482,False,1,0,2,6,0,0,29.0,0.9229684665821254,51.159875190020855,33.64260002633651,-3.1432512154152725,0.004070705681068037
1,3,463,4,-16,True,,,62.42097,50.0,4216.755000001285,-12.420969999999997,False,1,0,3,6,0,0,29.0,0.9229684665821254,51.159875190020855,33.64260002633651,-9.517350549174822,0.012392890563626031
1,7,329,5,-19,True,,,87.0672,74.0,3767.7350000012666,-13.0672,False,1,0,4,6,0,0,29.0,0.9229684665821254,51.159875190020855,33.64260002633651,-2.100616030562321,0.002855251482198448
1,4,1000,1,-13,True,,,6.87518,24.0,3347.1649999846704,17.12482,False,1,0,5,6,0,0,29.0,0.9229684665821254,51.159875190020855,33.64260002633651,1.8567487845847275,0.0010483675405955695
1,5,329,5,-13,True,,,87.0672,79.0,4055.6499999947846,-8.0672,False,1,0,6,6,0,0,29.0,0.9229684665821254,51.159875190020855,33.64260002633651,2.899383969437679,0.0010424028758808635
1,7,652,2,-13,True,,,37.72798,50.0,763.1050000200048,12.272019999999998,False,1,0,7,6,0,0,29.0,0.9229684665821254,51.159875190020855,33.64260002633651,7.097376194695343,0.00511136020665178
1,4,358,5,-13,True,,,80.9736,70.0,4475.894999981392,-10.973600000000005,False,1,0,8,6,0,0,29.0,0.9229684665821254,51.159875190020855,33.64260002633651,-2.000524961427402,0.002025570868663199
1,5,918,1,-16,True,,,13.04687,28.0,2653.280000027735,14.95313,False,1,0,9,6,0,0,29.0,0.9229684665821254,51.159875190020855,33.64260002633651,1.7041100694945541,0.0006319964297133393
1,6,302,5,-13,True,,,93.24415,72.0,2944.344999967143,-21.244150000000005,False,1,0,10,6,0,0,29.0,0.9229684665821254,51.159875190020855,33.64260002633651,-8.256790352863248,0.032244202431341185
1,2,390,4,-16,True,,,74.79787,61.0,2813.6499999673106,-13.797870000000003,False,1,0,11,6,0,0,29.0,0.9229684665821254,51.159875190020855,33.64260002633651,-6.845174813012278,0.010906632501901985
1,4,774,2,-19,True,,,25.3549,25.0,1978.0749999918044,-0.35490000000000066,False,1,0,12,6,0,0,29.0,0.9229684665821254,51.159875190020855,33.64260002633651,-9.57737211025789,0.018030550984496824
1,2,358,5,-16,True,,,80.9736,67.0,2741.6599999996834,-13.973600000000005,False,1,0,13,6,0,0,29.0,0.9229684665821254,51.159875190020855,33.64260002633651,-5.000524961427402,0.008232714327699182
1,6,463,4,-19,True,,,62.42097,50.0,1036.0299999592826,-12.420969999999997,False,1,0,14,6,0,0,29.0,0.9229684665821254,51.159875190020855,33.64260002633651,-9.517350549174822,0.012392890563626031
1,2,550,3,-13,True,,,50.0,50.0,2058.1149999634363,0.0,False,1,0,15,6,0,0,29.0,0.9229684665821254,51.159875190020855,33.64260002633651,-1.1598751900208555,0.00030702042736055084
1,5,425,4,-19,True,,,68.59844,62.0,3365.029999986291,-6.5984399999999965,False,1,0,16,6,0,0,29.0,0.9229684665821254,51.159875190020855,33.64260002633651,-1.6738719899356838,0.0008983056927367127
1,3,599,3,-16,True,,,43.84378,37.0,2162.1950000408106,-6.843780000000002,False,1,0,17,6,0,0,29.0,0.9229684665821254,51.159875190020855,33.64260002633651,-10.017650772944478,0.011367042527975055
1,7,1000,1,-19,True,,,6.87518,23.0,2277.044999995269,16.12482,False,1,0,18,6,0,0,29.0,0.9229684665821254,51.159875190020855,33.64260002633651,0.8567487845847275,0.0001727223365160505
1,4,463,4,-16,True,,,62.42097,62.0,2148.6300000105985,-0.42096999999999696,False,1,0,19,6,0,0,29.0,0.9229684665821254,51.159875190020855,33.64260002633651,2.4826494508251784,0.00034950871370587814
1,6,710,2,-13,True,,,31.58063,28.0,2851.635000028182,-3.5806299999999993,False,1,0,20,6,0,0,29.0,0.9229684665821254,51.159875190020855,33.64260002633651,-10.766365035895312,0.018058321124198373
1,7,425,4,-19,True,,,68.59844,63.0,1792.284999974072,-5.5984399999999965,False,1,0,21,6,0,0,29.0,0.9229684665821254,51.159875190020855,33.64260002633651,-0.6738719899356838,0.0003226944515000398
1,6,550,3,-19,True,,,50.0,50.0,455.66500001586974,0.0,False,1,0,22,6,0,0,29.0,0.9229684665821254,51.159875190020855,33.64260002633651,-1.1598751900208555,0.00030702042736055084
1,3,774,2,-19,True,,,25.3549,21.0,2256.6149999620393,-4.354900000000001,False,1,0,23,6,0,0,29.0,0.9229684665821254,51.159875190020855,33.64260002633651,-13.57737211025789,0.03545147734123789
1,2,1000,1,-19,True,,,6.87518,20.0,3593.429999949876,13.12482,False,1,0,24,6,0,0,29.0,0.9229684665821254,51.159875190020855,33.64260002633651,-2.1432512154152725,0.0019861252207995328
1,5,550,3,-19,True,,,50.0,50.0,559.8400000017136,0.0,False,1,0,25,6,0,0,29.0,0.9229684665821254,51.159875190020855,33.64260002633651,-1.1598751900208555,0.00030702042736055084
1,3,843,1,-13,True,,,19.19495,22.0,2395.235000003595,2.8050500000000014,False,1,0,26,6,0,0,29.0,0.9229684665821254,51.159875190020855,33.64260002633651,-8.432635249651096,0.017708103701391524
1,4,504,3,-13,True,,,56.30039,50.0,561.8150000227615,-6.30039,False,1,0,27,6,0,0,29.0,0.9229684665821254,51.159875190020855,33.64260002633651,-5.39910806228346,0.0037694413194854885
1,3,329,5,-19,True,,,87.0672,74.0,2057.2599999723025,-13.0672,False,1,0,28,6,0,0,29.0,0.9229684665821254,51.159875190020855,33.64260002633651,-2.100616030562321,0.002855251482198448
1,7,599,3,-16,True,,,43.84378,50.0,627.4099999573082,6.156219999999998,False,1,0,29,6,0,0,29.0,0.9229684665821254,51.159875190020855,33.64260002633651,2.982349227055522,0.0005949311876177671
1,2,774,2,-19,True,,,25.3549,27.0,2701.3799999840558,1.6450999999999993,False,1,0,30,6,0,0,29.0,0.9229684665821254,51.159875190020855,33.64260002633651,-7.57737211025789,0.011507714778173613
1,2,425,4,-13,True,"[74, 74, 74, 74, 74]","[368, 736, 1056, 1440, 1883]",68.59844,70.0,2819.4950000033714,1.4015600000000035,True,2,1,31,6,0,0,29.0,0.9229684665821254,51.159875190020855,33.64260002633651,6.326128010064316,0.004368238706424123
1,5,504,3,-13,True,"[74, 74, 74, 74]","[293, 640, 1163, 1685]",56.30039,50.0,1083.1449999823235,-6.30039,True,2,1,32,6,0,0,29.0,0.9229684665821254,51.159875190020855,33.64260002633651,-5.39910806228346,0.0037694413194854885
1,3,1000,1,-19,True,"[74, 74, 74]","[576, 2133, 3173]",6.87518,22.0,2109.295000031125,15.12482,True,2,1,33,6,0,0,29.0,0.9229684665821254,51.159875190020855,33.64260002633651,-0.14325121541527253,3.7133548523537916e-05
1,7,710,2,-19,True,"[74, 74, 74, 74]","[347, 949, 1643, 2325]",31.58063,50.0,1188.1050000083633,18.41937,True,2,1,34,6,0,0,29.0,0.9229684665821254,51.159875190020855,33.64260002633651,11.233634964104688,0.016794558017079426
1,6,918,1,-19,True,"[74, 74, 74, 74, 74]","[21, 731, 2016, 2859, 3787]",13.04687,23.0,2934.064999979455,9.95313,True,2,1,35,6,0,0,29.0,0.9229684665821254,51.159875190020855,33.64260002633651,-3.295889930505446,0.003674598088757759
1,3,652,2,-16,True,"[74, 74, 74, 74, 74]","[352, 1013, 1531, 2149, 2805]",37.72798,50.0,1204.729999997653,12.272019999999998,True,2,1,36,6,0,0,29.0,0.9229684665821254,51.159875190020855,33.64260002633651,7.097376194695343,0.00511136020665178
1,6,390,4,-16,True,"[74, 74, 74, 74, 74, 74]","[341, 747, 917, 1077, 1280, 1483]",74.79787,85.0,3616.120000020601,10.202129999999997,True,2,1,37,6,0,0,29.0,0.9229684665821254,51.159875190020855,33.64260002633651,17.154825186987722,0.048273242160880594
1,7,843,1,-13,True,"[74, 74, 74, 74]","[171, 677, 1845, 2731]",19.19495,26.0,2495.5099999788217,6.805050000000001,True,2,1,38,6,0,0,29.0,0.9229684665821254,51.159875190020855,33.64260002633651,-4.432635249651096,0.0052040133223154195
1,5,463,4,-13,True,"[74, 74, 74, 74, 74]","[336, 725, 1136, 1568, 2043]",62.42097,74.0,3059.659999969881,11.579030000000003,True,2,1,39,6,0,0,29.0,0.9229684665821254,51.159875190020855,33.64260002633651,14.482649450825178,0.02211575405571592
1,6,652,2,-16,True,"[74, 74, 74, 74, 74]","[368, 720, 1541, 2091, 2736]",37.72798,50.0,1495.4849999630824,12.272019999999998,True,2,1,40,6,0,0,29.0,0.9229684665821254,51.159875190020855,33.64260002633651,7.097376194695343,0.00511136020665178
1,7,463,4,-16,True,"[74, 74, 74, 74, 74]","[341, 736, 1077, 1509, 1979]",62.42097,67.0,2821.5450000134297,4.579030000000003,True,2,1,41,6,0,0,29.0,0.9229684665821254,51.159875190020855,33.64260002633651,7.482649450825178,0.005309968746079657
1,6,358,5,-19,True,"[74, 74, 74, 74, 74]","[213, 715, 907, 1205, 1515]",80.9736,81.0,3263.570000010077,0.026399999999995316,True,2,1,42,6,0,0,29.0,0.9229684665821254,51.159875190020855,33.64260002633651,8.999475038572598,0.015046176653863779
1,4,652,2,-13,True,"[74, 74, 74, 74, 74]","[352, 997, 1536, 2139, 2789]",37.72798,29.0,3978.899999987334,-8.727980000000002,True,2,1,43,6,0,0,29.0,0.9229684665821254,51.159875190020855,33.64260002633651,-13.902623805304657,0.024335507174012463
1,7,358,5,-16,True,"[74, 74, 74, 74, 74, 74]","[357, 715, 901, 1120, 1365, 1589]",80.9736,83.0,3257.8799999901094,2.0263999999999953,True,2,1,44,6,0,0,29.0,0.9229684665821254,51.159875190020855,33.64260002633651,10.999475038572598,0.023454360996908768
1,4,843,1,-16,True,"[74, 74, 74, 74, 74, 74]","[363, 704, 1109, 1893, 2715, 3477]",19.19495,23.0,2401.2999999686144,3.8050500000000014,True,2,1,45,6,0,0,29.0,0.9229684665821254,51.159875190020855,33.64260002633651,-7.432635249651096,0.013885926497681837
1,2,302,5,-13,True,"[74, 74, 74, 74, 74]","[373, 667, 853, 1056, 1312]",93.24415,78.0,3215.550000022631,-15.244150000000005,True,2,1,46,6,0,0,29.0,0.9229684665821254,51.159875190020855,33.64260002633651,-2.2567903528632485,0.004119957481838362
1,3,504,3,-13,True,"[74, 74, 74, 74, 74]","[352, 693, 1184, 1701, 2197]",56.30039,70.0,3130.6850000401028,13.69961,True,2,1,47,6,0,0,29.0,0.9229684665821254,51.159875190020855,33.64260002633651,14.60089193771654,0.01964670874244138
1,4,302,5,-19,True,"[74, 74, 74, 74, 74]","[363, 699, 949, 1173, 1392]",93.24415,100.0,3513.1099999998696,6.755849999999995,True,2,1,48,6,0,0,29.0,0.9229684665821254,51.159875190020855,33.64260002633651,19.74320964713675,0.1287894121675174
1,7,504,3,-19,True,"[74, 74, 74, 74, 74]","[480, 741, 1109, 1600, 2075]",56.30039,50.0,552.350000012666,-6.30039,True,2,1,49,6,0,0,29.0,0.9229684665821254,51.159875190020855,33.64260002633651,-5.39910806228346,0.0037694413194854885
1,5,652,2,-13,True,"[74, 74, 74, 74, 74]","[347, 672, 1552, 2149, 2784]",37.72798,31.0,3972.829999984242,-6.727980000000002,True,2,1,50,6,0,0,29.0,0.9229684665821254,51.159875190020855,33.64260002633651,-11.902623805304657,0.018045219701803637
1,3,302,5,-16,True,"[74, 74, 74, 74, 74]","[368, 688, 880, 1051, 1237]",93.24415,81.0,3729.9300000304356,-12.244150000000005,True,2,1,51,6,0,0,29.0,0.9229684665821254,51.159875190020855,33.64260002633651,0.7432096471367515,4.221086181765831e-05
1,4,599,3,-19,True,"[74, 74, 74, 74, 74]","[379, 629, 1339, 1936, 2432]",43.84378,50.0,857.2549999807961,6.156219999999998,True,2,1,52,6,0,0,29.0,0.9229684665821254,51.159875190020855,33.64260002633651,2.982349227055522,0.0005949311876177671
1,3,390,4,-13,True,"[74, 74, 74, 74, 74]","[341, 704, 965, 1349, 1701]",74.79787,70.0,3032.1149999508634,-4.797870000000003,True,2,1,53,6,0,0,29.0,0.9229684665821254,51.159875190020855,33.64260002633651,2.154825186987722,0.00029309891323155764
1,2,918,1,-13,True,"[74, 74, 74, 74, 74, 74]","[384, 725, 1360, 2101, 2949, 3835]",13.04687,21.0,3785.845000005793,7.95313,True,2,1,54,6,0,0,29.0,0.9229684665821254,51.159875190020855,33.64260002633651,-5.295889930505446,0.009010122342275443
1,4,425,4,-19,True,"[74, 74, 74, 74, 74]","[405, 784, 1024, 1339, 1760]",68.59844,77.0,3460.7649999670684,8.401560000000003,True,2,1,55,6,0,0,29.0,0.9229684665821254,51.159875190020855,33.64260002633651,13.326128010064316,0.02254472311261459
1,2,599,3,-19,True,"[74, 74, 74, 74, 74]","[363, 949, 1429, 2000, 2576]",43.84378,50.0,925.7249999791384,6.156219999999998,True,2,1,56,6,0,0,29.0,0.9229684665821254,51.159875190020855,33.64260002633651,2.982349227055522,0.0005949311876177671
1,5,843,1,-13,True,"[74, 74, 74, 74, 74, 74]","[352, 688, 1157, 1883, 2741, 3531]",19.19495,33.0,4106.704999983776,13.805050000000001,True,2,1,57,6,0,0,29.0,0.9229684665821254,51.159875190020855,33.64260002633651,2.5673647503489043,0.0011898234550757035
1,2,710,2,-13,True,"[74, 74, 74, 74]","[384, 773, 1669, 2357]",31.58063,50.0,1243.6700000544079,18.41937,True,2,1,58,6,0,0,29.0,0.9229684665821254,51.159875190020855,33.64260002633651,11.233634964104688,0.016794558017079426
1,5,302,5,-19,True,"[74, 74, 74, 74, 74]","[352, 736, 928, 1136, 1376]",93.24415,85.0,2791.650000028312,-8.244150000000005,True,2,1,59,6,0,0,29.0,0.9229684665821254,51.159875190020855,33.64260002633651,4.7432096471367515,0.0049593829215107835
1,6,504,3,-16,True,"[74, 74, 74, 74]","[549, 1168, 1648, 2107]",56.30039,50.0,599.4350000401028,-6.30039,True,2,1,60,6,0,0,29.0,0.9229684665821254,51.159875190020855,33.64260002633651,-5.39910806228346,0.0037694413194854885
1,5,390,4,-16,True,"[74, 74, 74, 74, 74]","[341, 741, 992, 1333, 1701]",74.79787,64.0,2563.854999956675,-10.797870000000003,True,2,2,61,6,0,0,29.0,0.9229684665821254,51.159875190020855,33.64260002633651,-3.845174813012278,0.004085319677573521
1,4,918,1,-19,True,"[74, 74, 74, 74, 74, 74]","[357, 683, 1253, 1904, 2837, 3621]",13.04687,37.0,3981.339999998454,23.95313,True,2,2,62,6,0,0,29.0,0.9229684665821254,51.159875190020855,33.64260002633651,10.704110069494554,0.03222166575253264
1,6,329,5,-16,True,"[74, 74, 74, 74, 74]","[357, 693, 901, 1125, 1403]",87.0672,73.0,4858.570000040345,-14.0672,True,2,2,63,6,0,0,29.0,0.9229684665821254,51.159875190020855,33.64260002633651,-3.100616030562321,0.0049813552672172195
1,2,843,1,-16,True,"[74, 74, 74, 74, 74, 74]","[357, 736, 1147, 1680, 2629, 3387]",19.19495,50.0,1536.7649999679998,30.80505,True,2,2,64,6,0,0,29.0,0.9229684665821254,51.159875190020855,33.64260002633651,19.567364750348904,0.08611810345056536
1,7,302,5,-13,True,"[74, 74, 74, 74]","[635, 864, 1115, 1392]",93.24415,73.0,2283.3899999968708,-20.244150000000005,True,2,2,65,6,0,0,29.0,0.9229684665821254,51.159875190020855,33.64260002633651,-7.2567903528632485,0.02570786978147391
1,5,599,3,-16,True,"[74, 74, 74, 74, 74]","[368, 800, 1376, 1925, 2555]",43.84378,50.0,545.990000013262,6.156219999999998,True,2,2,66,6,0,0,29.0,0.9229684665821254,51.159875190020855,33.64260002633651,2.982349227055522,0.0005949311876177671
1,4,710,2,-16,True,"[74, 74, 74, 74, 74]","[341, 885, 1611, 2272, 2987]",31.58063,50.0,966.199999966193,18.41937,True,2,2,67,6,0,0,29.0,0.9229684665821254,51.159875190020855,33.64260002633651,11.233634964104688,0.016794558017079426
1,2,463,4,-19,True,"[74, 74, 74, 74, 74]","[293, 741, 1099, 1547, 1947]",62.42097,62.0,1745.9749999688938,-0.42096999999999696,True,2,2,68,6,0,0,29.0,0.9229684665821254,51.159875190020855,33.64260002633651,2.4826494508251784,0.00034950871370587814
1,6,843,1,-13,True,"[74, 74, 74, 74, 74]","[363, 725, 1957, 2720, 3456]",19.19495,28.0,2033.5750000085682,8.805050000000001,True,2,2,69,6,0,0,29.0,0.9229684665821254,51.159875190020855,33.64260002633651,-2.4326352496510957,0.0017365865685399847
1,3,425,4,-19,True,"[74, 74, 74, 74, 74]","[373, 757, 1056, 1435, 1835]",68.59844,72.0,2506.969999987632,3.4015600000000035,True,2,2,70,6,0,0,29.0,0.9229684665821254,51.159875190020855,33.64260002633651,8.326128010064316,0.008119587296839115
1,7,918,1,-16,True,"[74, 74, 74, 74, 74, 74]","[352, 715, 1205, 1888, 2805, 3520]",13.04687,29.0,2793.665000004694,15.95313,True,2,2,71,6,0,0,29.0,0.9229684665821254,51.159875190020855,33.64260002633651,2.704110069494554,0.0017885404935758479
1,6,425,4,-13,True,"[74, 74, 74, 74]","[363, 752, 1083, 1493]",68.59844,64.0,16856.465000018943,-4.5984399999999965,True,2,2,72,6,0,0,29.0,0.9229684665821254,51.159875190020855,33.64260002633651,0.32612801006431624,3.546974396268112e-05
1,5,358,5,-16,True,"[74, 74, 74, 74, 74]","[16, 613, 923, 1264, 1557]",80.9736,72.0,52948.94500001101,-8.973600000000005,True,2,2,73,6,0,0,29.0,0.9229684665821254,51.159875190020855,33.64260002633651,-0.0005249614274021042,0.00021086041123223102
1,4,390,4,-13,True,"[74, 74, 74, 74, 74]","[373, 688, 1003, 1349, 1717]",74.79787,69.0,3739.515000022948,-5.797870000000003,True,2,2,74,6,0,0,29.0,0.9229684665821254,51.159875190020855,33.64260002633651,1.154825186987722,1.3061180963092058e-05
1,2,329,5,-19,True,"[74, 74, 74, 74, 74]","[368, 715, 955, 1205, 1493]",87.0672,72.0,1848.5750000108965,-15.0672,True,2,2,75,6,0,0,29.0,0.9229684665821254,51.159875190020855,33.64260002633651,-4.100616030562321,0.007695303740154411
1,3,710,2,-13,True,"[74, 74, 74, 74]","[571, 1573, 2267, 2917]",31.58063,39.0,3704.5949999592267,7.419370000000001,True,2,2,76,6,0,0,29.0,0.9229684665821254,51.159875190020855,33.64260002633651,0.23363496410468798,5.729879907550024e-06
1,2,504,3,-16,True,"[74, 74, 74, 74, 74]","[363, 779, 1264, 1728, 2192]",56.30039,50.0,762.4950000317767,-6.30039,True,2,2,77,6,0,0,29.0,0.9229684665821254,51.159875190020855,33.64260002633651,-5.39910806228346,0.0037694413194854885
1,7,774,2,-16,True,"[74, 74, 74, 74, 74]","[379, 752, 1776, 2485, 3221]",25.3549,35.0,1571.2350000394508,9.6451,True,2,2,78,6,0,0,29.0,0.9229684665821254,51.159875190020855,33.64260002633651,0.42262788974210963,5.497665295398482e-07
1,3,550,3,-19,True,"[74, 74, 74, 74, 74]","[368, 736, 1328, 1845, 2389]",50.0,50.0,567.5099999643862,0.0,True,2,2,79,6,0,0,29.0,0.9229684665821254,51.159875190020855,33.64260002633651,-1.1598751900208555,0.00030702042736055084
1,5,1000,1,-19,True,"[74, 74, 74, 74, 74]","[384, 763, 1349, 2059, 3099]",6.87518,25.0,2036.9100000243634,18.12482,True,2,2,80,6,0,0,29.0,0.9229684665821254,51.159875190020855,33.64260002633651,2.8567487845847275,0.0026640691607620944
1,6,774,2,-19,True,"[74, 74, 74, 74]","[395, 768, 1616, 2459]",25.3549,50.0,447.87999999243766,24.6451,True,2,2,81,6,0,0,29.0,0.9229684665821254,51.159875190020855,33.64260002633651,15.42262788974211,0.04131889081605728
1,7,390,4,-13,True,"[74, 74, 74, 74]","[667, 1003, 1349, 1664]",74.79787,65.0,2250.5499999970198,-9.797870000000003,True,2,2,82,6,0,0,29.0,0.9229684665821254,51.159875190020855,33.64260002633651,-2.845174813012278,0.0025412083571910676
1,4,329,5,-16,True,"[74, 74, 74, 74, 74]","[53, 624, 896, 1179, 1472]",87.0672,78.0,2479.425000026822,-9.0672,True,2,2,83,6,0,0,29.0,0.9229684665821254,51.159875190020855,33.64260002633651,1.8993839694376788,0.0002292832213075436
1,7,550,3,-13,True,"[74, 74, 74, 74, 74]","[96, 571, 1221, 1813, 2336]",50.0,50.0,550.9999999776483,0.0,True,2,2,84,6,0,0,29.0,0.9229684665821254,51.159875190020855,33.64260002633651,-1.1598751900208555,0.00030702042736055084
1,3,918,1,-16,True,"[74, 74, 74, 74, 74]","[43, 635, 1984, 2816, 3781]",13.04687,26.0,2292.9150000563823,12.95313,True,2,2,85,6,0,0,29.0,0.9229684665821254,51.159875190020855,33.64260002633651,-0.2958899305054459,8.397269765971452e-05
1,6,599,3,-13,True,"[74, 74, 74, 74, 74]","[336, 811, 1387, 1899, 2555]",43.84378,50.0,663.4249999769963,6.156219999999998,True,2,2,86,6,0,0,29.0,0.9229684665821254,51.159875190020855,33.64260002633651,2.982349227055522,0.0005949311876177671
1,5,774,2,-19,True,"[74, 74, 74, 74, 74]","[16, 613, 1147, 1749, 2443]",25.3549,50.0,8067.049999954179,24.6451,True,2,2,87,6,0,0,29.0,0.9229684665821254,51.159875190020855,33.64260002633651,15.42262788974211,0.04131889081605728
1,3,358,5,-13,True,"[74, 74, 74, 74, 74]","[64, 592, 912, 1237, 1557]",80.9736,71.0,2041.7349999770522,-9.973600000000005,True,2,2,88,6,0,0,29.0,0.9229684665821254,51.159875190020855,33.64260002633651,-1.000524961427402,0.0008858771217550796
1,2,652,2,-16,True,"[74, 74, 74, 74, 74]","[43, 603, 1381, 2075, 2699]",37.72798,50.0,1539.4450000021607,12.272019999999998,True,2,2,89,6,0,0,29.0,0.9229684665821254,51.159875190020855,33.64260002633651,7.097376194695343,0.00511136020665178
1,4,550,3,-16,True,"[74, 74, 74, 74]","[608, 1200, 1728, 2165]",50.0,50.0,494.38999994890764,0.0,True,2,2,90,6,0,0,29.0,0.9229684665821254,51.159875190020855,33.64260002633651,-1.1598751900208555,0.00030702042736055084
2,3,550,3,-16,True,"[74, 74, 74, 74]","[772, 1329, 1852, 2397]",50.0,50.0,1337.5749999831896,0.0,True,2,0,1,6,0,0,31.0,0.9028819707517066,48.04256213179057,53.36715283298323,1.957437868209432,0.0001360591049884587
2,4,652,2,-16,True,"[74, 74, 74, 74]","[401, 755, 1503, 2194]",37.72798,24.0,5710.5000000156,-13.727980000000002,True,2,0,2,6,0,0,31.0,0.9028819707517066,48.04256213179057,53.36715283298323,-10.944109685084776,0.0049242995471473405
2,2,843,1,-19,True,"[74, 74, 74, 74, 74]","[354, 755, 1933, 2705, 3541]",19.19495,0.0,6199.83999998658,-19.19495,True,2,0,3,6,0,0,31.0,0.9028819707517066,48.04256213179057,53.36715283298323,-15.163005235543123,0.019824523507372845
2,3,652,2,-19,True,"[74, 74, 74, 74]","[418, 877, 1573, 2194]",37.72798,37.0,2412.2499999939464,-0.7279800000000023,True,2,0,4,6,0,0,31.0,0.9028819707517066,48.04256213179057,53.36715283298323,2.0558903149152243,0.00012404638342459597
2,7,358,5,-13,True,"[74, 74, 74, 74]","[395, 789, 1115, 1498]",80.9736,75.0,8574.280000000726,-5.973600000000005,True,2,0,5,6,0,0,31.0,0.9028819707517066,48.04256213179057,53.36715283298323,-6.102020693811923,0.001972513950968346
2,5,652,2,-13,True,"[74, 74, 74, 74, 74]","[453, 1051, 1556, 2148, 2757]",37.72798,35.0,1894.750000006752,-2.7279800000000023,True,2,0,6,6,0,0,31.0,0.9028819707517066,48.04256213179057,53.36715283298323,0.05589031491522434,1.8817474018008087e-06
2,3,843,1,-19,True,"[74, 74, 74, 74]","[401, 842, 1811, 2786]",19.19495,0.0,5929.249999986496,-19.19495,True,2,0,7,6,0,0,31.0,0.9028819707517066,48.04256213179057,53.36715283298323,-15.163005235543123,0.019824523507372845
2,6,599,3,-19,True,"[74, 74, 74, 74, 74]","[145, 993, 1416, 1985, 2583]",43.84378,50.0,740.0149999884889,6.156219999999998,True,2,0,8,6,0,0,31.0,0.9028819707517066,48.04256213179057,53.36715283298323,8.528235706711158,0.0024123106365047694
2,7,390,4,-16,True,"[74, 74, 74, 74]","[401, 964, 1242, 1649]",74.79787,100.0,2398.285000002943,25.202129999999997,True,2,0,9,6,0,0,31.0,0.9028819707517066,48.04256213179057,53.36715283298323,25.489598451897066,0.04223825879519095
2,6,918,1,-16,True,"[74, 74, 74]","[656, 1324, 2049]",13.04687,22.0,4352.719999995315,8.95313,True,2,0,10,6,0,0,31.0,0.9028819707517066,48.04256213179057,53.36715283298323,13.399101126781757,0.014992503377159771
2,4,463,4,-16,True,"[74, 74, 74, 74]","[406, 755, 1062, 1556]",62.42097,64.0,1759.0750000090338,1.579030000000003,True,2,0,11,6,0,0,31.0,0.9028819707517066,48.04256213179057,53.36715283298323,2.7000004394522463,0.0003969007600777333
2,7,1000,1,-19,True,"[74, 74, 74, 74, 74]","[395, 778, 1440, 2357, 3384]",6.87518,0.0,2661.790000012843,-6.87518,True,2,0,12,6,0,0,31.0,0.9028819707517066,48.04256213179057,53.36715283298323,-2.0135808658438594,0.0012934541326453954
2,4,302,5,-19,True,"[74, 74, 74, 74]","[366, 760, 1027, 1364]",93.24415,100.0,2103.5350000020117,6.755849999999995,True,2,0,13,6,0,0,31.0,0.9028819707517066,48.04256213179057,53.36715283298323,5.801090937586949,0.00645139261523737
2,6,774,2,-16,True,"[74, 74, 74, 74]","[406, 1178, 1776, 2577]",25.3549,22.0,2097.765000013169,-3.3549000000000007,True,2,0,14,6,0,0,31.0,0.9028819707517066,48.04256213179057,53.36715283298323,0.2622114445189183,9.421316650173587e-06
2,3,390,4,-13,True,"[74, 74, 74, 74]","[360, 755, 1202, 1683]",74.79787,88.0,3866.65000001085,13.202129999999997,True,2,0,15,6,0,0,31.0,0.9028819707517066,48.04256213179057,53.36715283298323,13.489598451897066,0.012531079518538565
2,2,302,5,-16,True,"[74, 74, 74, 74]","[372, 708, 998, 1353]",93.24415,100.0,1823.9249999751337,6.755849999999995,True,2,0,16,6,0,0,31.0,0.9028819707517066,48.04256213179057,53.36715283298323,5.801090937586949,0.00645139261523737
2,4,599,3,-19,True,"[74, 74, 74, 74, 74]","[377, 627, 1300, 1881, 2456]",43.84378,43.0,1821.2749999947846,-0.8437800000000024,True,2,0,17,6,0,0,31.0,0.9028819707517066,48.04256213179057,53.36715283298323,1.5282357067111576,7.032055754279934e-05
2,2,390,4,-19,True,"[74, 74, 74, 74]","[302, 772, 1271, 1689]",74.79787,77.0,2020.2200000057928,2.202129999999997,True,2,0,18,6,0,0,31.0,0.9028819707517066,48.04256213179057,53.36715283298323,2.4895984518970664,0.000684514187479451
2,5,302,5,-13,True,"[74, 74, 74, 74]","[406, 726, 1022, 1347]",93.24415,100.0,3338.6349999927916,6.755849999999995,True,2,0,19,6,0,0,31.0,0.9028819707517066,48.04256213179057,53.36715283298323,5.801090937586949,0.00645139261523737
2,7,504,3,-13,True,"[74, 74, 74, 74, 74]","[389, 656, 1149, 1672, 2188]",56.30039,50.0,2479.8899999877904,-6.30039,True,2,0,20,6,0,0,31.0,0.9028819707517066,48.04256213179057,53.36715283298323,-4.767244184055855,0.000676826568442741
2,5,1000,1,-13,True,"[74, 74, 74, 74, 74]","[372, 749, 1422, 2316, 3117]",6.87518,0.0,2715.599999995902,-6.87518,True,2,0,21,6,0,0,31.0,0.9028819707517066,48.04256213179057,53.36715283298323,-2.0135808658438594,0.0012934541326453954
2,6,358,5,-16,True,,,80.9736,93.0,1964.6799999754876,12.026399999999995,False,1,0,22,6,0,0,31.0,0.9028819707517066,48.04256213179057,53.36715283298323,11.897979306188077,0.012996071775289726
2,5,550,3,-13,True,"[74, 74, 74, 74]","[145, 697, 1306, 1881]",50.0,50.0,5439.489999989746,0.0,True,2,0,23,6,0,0,31.0,0.9028819707517066,48.04256213179057,53.36715283298323,1.957437868209432,0.00013605910498845858
2,2,652,2,-13,True,"[74, 74, 74, 74, 74]","[430, 946, 1474, 1985, 2525]",37.72798,0.0,2851.0499999974854,-37.72798,True,2,0,24,6,0,0,31.0,0.9028819707517066,48.04256213179057,53.36715283298323,-34.944109685084776,0.04852587943338631
2,5,390,4,-19,True,"[74, 74, 74]","[505, 975, 1428]",74.79787,75.0,2613.2499999948777,0.2021299999999968,True,2,0,25,6,0,0,31.0,0.9028819707517066,48.04256213179057,53.36715283298323,0.4895984518970664,0.00011166202248850985
2,7,652,2,-16,True,"[74, 74, 74, 74, 74]","[499, 1033, 1538, 2043, 2560]",37.72798,11.0,3648.8599999865983,-26.727980000000002,True,2,0,26,6,0,0,31.0,0.9028819707517066,48.04256213179057,53.36715283298323,-23.944109685084776,0.02294749868765587
2,3,358,5,-13,True,"[74, 74, 74]","[35, 598, 1132]",80.9736,92.0,2534.4850000110455,11.026399999999995,True,2,0,27,6,0,0,31.0,0.9028819707517066,48.04256213179057,53.36715283298323,10.897979306188077,0.011066950680900208
2,4,918,1,-19,True,"[74, 74, 74, 74, 74, 74, 74]","[110, 702, 1265, 1771, 2334, 2908, 3442]",13.04687,0.0,4291.280000004917,-13.04687,True,2,0,28,6,0,0,31.0,0.9028819707517066,48.04256213179057,53.36715283298323,-8.600898873218243,0.009105038822075221
2,6,463,4,-16,True,"[74, 74, 74]","[569, 1120, 1753]",62.42097,78.0,3239.2950000066776,15.579030000000003,True,2,0,29,6,0,0,31.0,0.9028819707517066,48.04256213179057,53.36715283298323,16.700000439452246,0.011557001651209273
2,2,550,3,-16,True,"[74, 74, 74, 74]","[470, 958, 1457, 1939]",50.0,22.0,2579.5750000106636,-28.0,True,2,0,30,6,0,0,31.0,0.9028819707517066,48.04256213179057,53.36715283298323,-26.042562131790568,0.021577406597347328
2,2,1000,1,-16,True,"[74, 74, 74, 74, 74, 74, 74, 74]","[70, 691, 1353, 1834, 2363, 2932, 3408, 3878]",6.87518,0.0,2978.964999987511,-6.87518,True,2,1,31,6,0,0,31.0,0.9028819707517066,48.04256213179057,53.36715283298323,-2.0135808658438594,0.0012934541326453954
2,4,425,4,-19,True,"[74, 74, 74]","[134, 731, 1324]",68.59844,80.0,2844.115000014426,11.401560000000003,True,2,1,32,6,0,0,31.0,0.9028819707517066,48.04256213179057,53.36715283298323,12.10652327630173,0.007852499079511245
2,3,302,5,-16,True,"[74, 74, 74]","[93, 656, 1178]",93.24415,100.0,2292.604999995092,6.755849999999995,True,2,1,33,6,0,0,31.0,0.9028819707517066,48.04256213179057,53.36715283298323,5.801090937586949,0.00645139261523737
2,6,652,2,-13,True,"[74, 74, 74, 74, 74]","[546, 1068, 1573, 2154, 2670]",37.72798,23.0,2342.210000002524,-14.727980000000002,True,2,1,34,6,0,0,31.0,0.9028819707517066,48.04256213179057,53.36715283298323,-11.944109685084776,0.005841245777714773
2,5,463,4,-16,True,"[74, 74, 74, 74]","[116, 673, 1358, 1968]",62.42097,24.0,2518.1100000045262,-38.42097,True,2,1,35,6,0,0,31.0,0.9028819707517066,48.04256213179057,53.36715283298323,-37.299999560547754,0.05304243123456695
2,7,843,1,-16,True,"[74, 74, 74, 74, 74, 74, 74]","[441, 929, 1474, 1974, 2479, 2943, 3367]",19.19495,78.0,2282.9149999888614,58.80505,True,2,1,36,6,0,0,31.0,0.9028819707517066,48.04256213179057,53.36715283298323,62.836994764456875,0.297280112236015
2,2,329,5,-13,True,"[74, 74, 74]","[64, 673, 1225]",87.0672,89.0,2033.9399999938905,1.9328000000000003,True,2,1,37,6,0,0,31.0,0.9028819707517066,48.04256213179057,53.36715283298323,1.3940174677932617,0.0006813696239252428
2,4,774,2,-13,True,"[74, 74, 74, 74, 74, 74]","[517, 975, 1498, 2090, 2537, 3088]",25.3549,0.0,2351.2100000225473,-25.3549,True,2,1,38,6,0,0,31.0,0.9028819707517066,48.04256213179057,53.36715283298323,-21.73778855548108,0.030476289785988642
2,2,599,3,-19,True,"[74, 74, 74, 74, 74]","[23, 639, 1277, 1846, 2421]",43.84378,34.0,2819.00499999756,-9.843780000000002,True,2,1,39,6,0,0,31.0,0.9028819707517066,48.04256213179057,53.36715283298323,-7.471764293288842,0.0019343125995923492
2,3,774,2,-13,True,"[74, 74, 74, 74, 74, 74]","[75, 685, 1248, 1771, 2287, 2810]",25.3549,26.0,2374.2549999733455,0.6450999999999993,True,2,1,40,6,0,0,31.0,0.9028819707517066,48.04256213179057,53.36715283298323,4.262211444518918,0.0007903600948313786
2,2,425,4,-13,True,"[74, 74, 74, 74]","[99, 726, 1254, 1887]",68.59844,72.0,1949.590000003809,3.4015600000000035,True,2,1,41,6,0,0,31.0,0.9028819707517066,48.04256213179057,53.36715283298323,4.106523276301729,0.0010988609079567455
2,3,599,3,-13,True,"[74, 74, 74, 74]","[35, 668, 1347, 1950]",43.84378,39.0,3506.519999995362,-4.843780000000002,True,2,1,42,6,0,0,31.0,0.9028819707517066,48.04256213179057,53.36715283298323,-2.4717642932888424,0.00022166116740203226
2,5,710,2,-19,True,"[74, 74, 74, 74, 74, 74]","[6, 592, 1126, 1672, 2264, 2937]",31.58063,39.0,2064.234999998007,7.419370000000001,True,2,1,43,6,0,0,31.0,0.9028819707517066,48.04256213179057,53.36715283298323,10.617224864891533,0.004947364303873438
2,6,1000,1,-19,True,"[74, 74, 74, 74, 74, 74, 74, 74]","[0, 546, 1051, 1596, 2113, 2653, 3158, 3692]",6.87518,0.0,1607.799999997951,-6.87518,True,2,1,44,6,0,0,31.0,0.9028819707517066,48.04256213179057,53.36715283298323,-2.0135808658438594,0.0012934541326453954
2,7,302,5,-19,True,"[74, 74]","[470, 958]",93.24415,100.0,2904.655000020284,6.755849999999995,True,2,1,45,6,0,0,31.0,0.9028819707517066,48.04256213179057,53.36715283298323,5.801090937586949,0.00645139261523737
2,4,1000,1,-16,True,"[74, 74, 74, 74, 74, 74, 74]","[522, 1097, 1672, 2212, 2734, 3222, 3698]",6.87518,0.0,2778.9449999982025,-6.87518,True,2,1,46,6,0,0,31.0,0.9028819707517066,48.04256213179057,53.36715283298323,-2.0135808658438594,0.0012934541326453954
2,6,302,5,-13,True,"[74, 74]","[627, 1190]",93.24415,87.0,3631.6550000046846,-6.244150000000005,True,2,1,47,6,0,0,31.0,0.9028819707517066,48.04256213179057,53.36715283298323,-7.198909062413051,0.0040982238053829554
2,7,550,3,-16,True,"[74, 74, 74, 74]","[41, 633, 1248, 1852]",50.0,50.0,7288.870000018505,0.0,True,2,1,48,6,0,0,31.0,0.9028819707517066,48.04256213179057,53.36715283298323,1.957437868209432,0.00013605910498845858
2,3,463,4,-19,True,"[74, 74, 74, 74]","[35, 650, 1219, 1712]",62.42097,34.0,6749.65000001248,-28.420969999999997,True,2,1,49,6,0,0,31.0,0.9028819707517066,48.04256213179057,53.36715283298323,-27.299999560547754,0.028140557918641954
2,7,710,2,-19,True,"[74, 74, 74, 74, 74, 74]","[104, 697, 1213, 1689, 2188, 3024]",31.58063,36.0,2368.1849999993574,4.419370000000001,True,2,1,50,6,0,0,31.0,0.9028819707517066,48.04256213179057,53.36715283298323,7.617224864891533,0.002455592767536078
2,6,425,4,-19,True,"[74, 74, 74]","[81, 708, 1277]",68.59844,62.0,2360.275000013644,-6.5984399999999965,True,2,1,51,6,0,0,31.0,0.9028819707517066,48.04256213179057,53.36715283298323,-5.893476723698271,0.0013091733006653007
2,4,358,5,-13,True,"[74, 74]","[586, 1196]",80.9736,73.0,2516.3250000041444,-7.973600000000005,True,2,1,52,6,0,0,31.0,0.9028819707517066,48.04256213179057,53.36715283298323,-8.102020693811923,0.0038457946992058257
2,7,463,4,-13,True,"[74, 74, 74, 74]","[70, 627, 1149, 1683]",62.42097,46.0,3337.085000006482,-16.420969999999997,True,2,1,53,6,0,0,31.0,0.9028819707517066,48.04256213179057,53.36715283298323,-15.299999560547754,0.008589941753158336
2,6,550,3,-16,True,"[74, 74, 74]","[679, 1306, 1869]",50.0,50.0,1134.5150000124704,0.0,True,2,1,54,6,0,0,31.0,0.9028819707517066,48.04256213179057,53.36715283298323,1.957437868209432,0.00013605910498845858
2,5,918,1,-19,True,"[74, 74, 74, 74, 74, 74]","[639, 1202, 1718, 2165, 2670, 3181]",13.04687,22.0,1598.9600000029895,8.95313,True,2,1,55,6,0,0,31.0,0.9028819707517066,48.04256213179057,53.36715283298323,13.399101126781757,0.014992503377159771
2,4,504,3,-16,True,"[74, 74, 74, 74]","[35, 685, 1231, 1724]",56.30039,53.0,2877.455000008922,-3.30039,True,2,1,56,6,0,0,31.0,0.9028819707517066,48.04256213179057,53.36715283298323,-1.7672441840558548,7.326154576582129e-05
2,3,918,1,-16,True,"[74, 74, 74, 74, 74, 74]","[551, 1103, 1643, 2148, 2664, 3123]",13.04687,22.0,1719.360000017332,8.95313,True,2,1,57,6,0,0,31.0,0.9028819707517066,48.04256213179057,53.36715283298323,13.399101126781757,0.014992503377159771
2,5,329,5,-19,True,"[74, 74, 74]","[35, 627, 1202]",87.0672,100.0,2265.1349999941885,12.9328,True,2,1,58,6,0,0,31.0,0.9028819707517066,48.04256213179057,53.36715283298323,12.394017467793262,0.01822174059189692
2,2,710,2,-16,True,"[74, 74, 74, 74, 74, 74]","[6, 534, 1080, 1602, 2171, 2752]",31.58063,21.0,1742.2150000056718,-10.58063,True,2,1,59,6,0,0,31.0,0.9028819707517066,48.04256213179057,53.36715283298323,-7.382775135108467,0.0029554321402760725
2,5,599,3,-16,True,"[74, 74, 74, 74]","[644, 1248, 1933, 2537]",43.84378,50.0,709.6500000043306,6.156219999999998,True,2,1,60,6,0,0,31.0,0.9028819707517066,48.04256213179057,53.36715283298323,8.528235706711158,0.0024123106365047694
2,4,843,1,-13,True,"[74, 74, 74]","[389, 755, 1620]",19.19495,11.0,3216.1550000018906,-8.194949999999999,True,2,2,61,6,0,0,31.0,0.9028819707517066,48.04256213179057,53.36715283298323,-4.163005235543123,0.0019405135400485402
2,2,774,2,-19,True,"[74, 74, 74]","[685, 1712, 2554]",25.3549,24.0,2217.4850000010338,-1.3549000000000007,True,2,2,62,6,0,0,31.0,0.9028819707517066,48.04256213179057,53.36715283298323,2.2622114445189183,0.0001567995746265446
2,4,329,5,-16,True,"[74, 74]","[470, 987]",87.0672,100.0,2158.2500000076834,12.9328,True,2,2,63,6,0,0,31.0,0.9028819707517066,48.04256213179057,53.36715283298323,12.394017467793262,0.01822174059189692
2,7,774,2,-13,True,"[74, 74, 74, 74, 74, 74]","[464, 964, 1498, 2026, 2566, 3036]",25.3549,23.0,2090.1650000014342,-2.3549000000000007,True,2,2,64,6,0,0,31.0,0.9028819707517066,48.04256213179057,53.36715283298323,1.2622114445189183,2.2337662859801248e-05
2,6,504,3,-13,True,"[74, 74, 74, 74]","[511, 1091, 1654, 2183]",56.30039,53.0,2095.369999995455,-3.30039,True,2,2,65,6,0,0,31.0,0.9028819707517066,48.04256213179057,53.36715283298323,-1.7672441840558548,7.326154576582129e-05
2,4,710,2,-19,True,"[74, 74, 74, 74, 74]","[551, 1068, 1643, 2177, 2781]",31.58063,35.0,2351.920000015525,3.4193700000000007,True,2,2,66,6,0,0,31.0,0.9028819707517066,48.04256213179057,53.36715283298323,6.617224864891533,0.0018169829525262443
2,7,329,5,-16,True,"[74, 74]","[580, 1115]",87.0672,73.0,2613.694999978179,-14.0672,True,2,2,67,6,0,0,31.0,0.9028819707517066,48.04256213179057,53.36715283298323,-14.605982532206738,0.017496658356873463
2,3,710,2,-16,True,"[74, 74, 74, 74, 74]","[534, 1051, 1591, 2154, 2943]",31.58063,24.0,2458.6699999927077,-7.580629999999999,True,2,2,68,6,0,0,31.0,0.9028819707517066,48.04256213179057,53.36715283298323,-4.382775135108467,0.0011276379918045017
2,4,550,3,-13,True,"[74, 74, 74, 74, 74]","[46, 691, 1236, 1765, 2241]",50.0,50.0,484.5550000027288,0.0,True,2,2,69,6,0,0,31.0,0.9028819707517066,48.04256213179057,53.36715283298323,1.957437868209432,0.00013605910498845858
2,6,390,4,-13,True,"[74, 74, 74]","[470, 987, 1602]",74.79787,63.0,1986.5850000060163,-11.797870000000003,True,2,2,70,6,0,0,31.0,0.9028819707517066,48.04256213179057,53.36715283298323,-11.510401548102934,0.0068906859218177035
2,5,504,3,-19,True,"[74, 74, 74, 74, 74]","[12, 499, 1103, 1660, 2136]",56.30039,53.0,3012.0850000239443,-3.30039,True,2,2,71,6,0,0,31.0,0.9028819707517066,48.04256213179057,53.36715283298323,-1.7672441840558548,7.326154576582129e-05
2,3,1000,1,-13,True,"[74, 74, 74, 74, 74]","[1376, 2003, 2548, 3082, 3767]",6.87518,0.0,3742.7350000070874,-6.87518,True,2,2,72,6,0,0,31.0,0.9028819707517066,48.04256213179057,53.36715283298323,-2.0135808658438594,0.0012934541326453954
2,5,774,2,-16,True,"[74, 74, 74, 74, 74, 74]","[122, 673, 1254, 1788, 2328, 2961]",25.3549,35.0,2080.889999982901,9.6451,True,2,2,73,6,0,0,31.0,0.9028819707517066,48.04256213179057,53.36715283298323,13.262211444518918,0.009657887930830356
2,3,504,3,-19,True,"[74, 74, 74, 74]","[35, 662, 1202, 1771]",56.30039,50.0,519.2699999897741,-6.30039,True,2,2,74,6,0,0,31.0,0.9028819707517066,48.04256213179057,53.36715283298323,-4.767244184055855,0.000676826568442741
2,6,843,1,-13,True,"[74, 74, 74, 74, 74, 74]","[656, 1149, 1724, 2426, 2926, 3529]",19.19495,34.0,2863.6199999891687,14.805050000000001,True,2,2,75,6,0,0,31.0,0.9028819707517066,48.04256213179057,53.36715283298323,18.836994764456875,0.025040117202822898
2,5,358,5,-16,True,"[74, 74, 74]","[418, 952, 1573]",80.9736,77.0,3128.515000018524,-3.9736000000000047,True,2,2,76,6,0,0,31.0,0.9028819707517066,48.04256213179057,53.36715283298323,-4.102020693811923,0.0007188573040299482
2,7,425,4,-19,True,"[74, 74, 74]","[557, 1086, 1620]",68.59844,63.0,1888.4050000051502,-5.5984399999999965,True,2,2,77,6,0,0,31.0,0.9028819707517066,48.04256213179057,53.36715283298323,-4.893476723698271,0.0008555240560368611
2,6,329,5,-19,True,"[74, 74, 74]","[6, 621, 1190]",87.0672,75.0,2430.7499999995343,-12.0672,True,2,2,78,6,0,0,31.0,0.9028819707517066,48.04256213179057,53.36715283298323,-12.605982532206738,0.012651229772957089
2,2,918,1,-13,True,"[74, 74, 74, 74, 74, 74, 74]","[215, 685, 1283, 1863, 2479, 3001, 3576]",13.04687,23.0,2072.4049999844283,9.95313,True,2,2,79,6,0,0,31.0,0.9028819707517066,48.04256213179057,53.36715283298323,14.399101126781757,0.017515674653593636
2,7,599,3,-19,True,"[74, 74, 74, 74, 74]","[122, 691, 1289, 1834, 2537]",43.84378,38.0,2408.5250000061933,-5.843780000000002,True,2,2,80,6,0,0,31.0,0.9028819707517066,48.04256213179057,53.36715283298323,-3.4717642932888424,0.0004287713942964266
2,4,390,4,-13,True,"[74, 74, 74]","[75, 662, 1213]",74.79787,76.0,1733.9199999987613,1.2021299999999968,True,2,2,81,6,0,0,31.0,0.9028819707517066,48.04256213179057,53.36715283298323,1.4895984518970664,0.00033727776635734437
2,6,710,2,-19,True,"[74, 74, 74, 74, 74]","[81, 702, 1324, 1916, 2577]",31.58063,31.0,1777.8050000197254,-0.5806299999999993,True,2,2,82,6,0,0,31.0,0.9028819707517066,48.04256213179057,53.36715283298323,2.617224864891533,0.00022244717800000443
2,3,425,4,-16,True,"[74, 74, 74]","[163, 731, 1329]",68.59844,70.0,2159.704999998212,1.4015600000000035,True,2,2,83,6,0,0,31.0,0.9028819707517066,48.04256213179057,53.36715283298323,2.106523276301729,0.00037182471030719624
2,2,358,5,-19,True,"[74, 74, 74]","[46, 644, 1190]",80.9736,67.0,2736.8849999911617,-13.973600000000005,True,2,2,84,6,0,0,31.0,0.9028819707517066,48.04256213179057,53.36715283298323,-14.102020693811923,0.013183381551712763
2,5,425,4,-13,True,"[74, 74, 74, 74]","[81, 650, 1219, 1840]",68.59844,58.0,1698.3849999960512,-10.598439999999997,True,2,2,85,6,0,0,31.0,0.9028819707517066,48.04256213179057,53.36715283298323,-9.89347672369827,0.004085143624418135
2,7,918,1,-13,True,"[74, 74, 74, 74, 74, 74]","[551, 1051, 1672, 2177, 2723, 3233]",13.04687,23.0,1605.3550000069663,9.95313,True,2,2,86,6,0,0,31.0,0.9028819707517066,48.04256213179057,53.36715283298323,14.399101126781757,0.017515674653593636
2,2,504,3,-13,True,"[74, 74, 74, 74]","[41, 627, 1184, 1753]",56.30039,50.0,1873.9300000015646,-6.30039,True,2,2,87,6,0,0,31.0,0.9028819707517066,48.04256213179057,53.36715283298323,-4.767244184055855,0.000676826568442741
2,5,843,1,-16,True,"[74, 74, 74, 74, 74, 74, 74]","[6, 575, 1080, 1654, 2194, 2711, 3390]",19.19495,24.0,3479.409999999916,4.805050000000001,True,2,2,88,6,0,0,31.0,0.9028819707517066,48.04256213179057,53.36715283298323,8.836994764456877,0.004940356596121768
2,3,329,5,-19,True,"[74, 74, 74]","[116, 702, 1219]",87.0672,100.0,2509.4850000168663,12.9328,True,2,2,89,6,0,0,31.0,0.9028819707517066,48.04256213179057,53.36715283298323,12.394017467793262,0.01822174059189692
2,2,463,4,-16,True,"[74, 74, 74]","[534, 1091, 1625]",62.42097,50.0,540.804999996908,-12.420969999999997,True,2,2,90,6,0,0,31.0,0.9028819707517066,48.04256213179057,53.36715283298323,-11.299999560547754,0.004577707713421702
3,7,843,1,-16,False,"[74, 74, 74, 74, 74]","[576, 1205, 1851, 2459, 3205]",19.19495,3.0,1938.495000009425,-16.19495,True,0,0,1,6,0,0,42.0,0.6025996635431053,47.221933994409035,23.070546935054125,-30.00814666809991,0.04024175019505834
3,2,302,5,-16,False,"[74, 74, 74]","[165, 651, 1120]",93.24415,73.0,2630.3199999965727,-20.244150000000005,True,0,0,2,6,0,0,42.0,0.6025996635431053,47.221933994409035,23.070546935054125,5.824740566886987,0.0020204327454976957
3,3,918,1,-13,False,"[74, 74, 74, 74, 74]","[469, 1024, 1579, 2229, 2736]",13.04687,6.0,2943.3999999891967,-7.04687,True,0,0,3,6,0,0,42.0,0.6025996635431053,47.221933994409035,23.070546935054125,-24.171357092710252,0.032423787783317476
3,5,390,4,-13,False,,,74.79787,76.0,8608.040000020992,1.2021299999999968,False,0,0,4,6,0,0,42.0,0.6025996635431053,47.221933994409035,23.070546935054125,17.336055347189948,0.01068649396602737
3,2,710,2,-19,False,,,31.58063,0.0,2095.5949999624863,-31.58063,False,0,0,5,6,0,0,42.0,0.6025996635431053,47.221933994409035,23.070546935054125,-38.723035054464084,0.04250013630726678
3,6,918,1,-13,False,,,13.04687,0.0,2322.764999989886,-13.04687,False,0,0,6,6,0,0,42.0,0.6025996635431053,47.221933994409035,23.070546935054125,-30.171357092710252,0.05120558554609188
3,3,710,2,-13,False,,,31.58063,21.0,3195.3750000102445,-10.58063,False,0,0,7,6,0,0,42.0,0.6025996635431053,47.221933994409035,23.070546935054125,-17.723035054464084,0.00864601123020826
3,4,843,1,-16,False,,,19.19495,50.0,3751.9350000075065,30.80505,False,0,0,8,6,0,0,42.0,0.6025996635431053,47.221933994409035,23.070546935054125,16.99185333190009,0.01463161197724074
3,6,774,2,-16,False,,,25.3549,25.0,3296.4049999718554,-0.35490000000000066,False,0,0,9,6,0,0,42.0,0.6025996635431053,47.221933994409035,23.070546935054125,-10.85041647486937,0.0038797651774144415
3,7,302,5,-19,False,,,93.24415,70.0,3626.339999958873,-23.244150000000005,False,0,0,10,6,0,0,42.0,0.6025996635431053,47.221933994409035,23.070546935054125,2.8247405668869874,0.0003624678383804733
3,5,550,3,-16,False,,,50.0,27.0,3153.280000027735,-23.0,False,0,0,11,6,0,0,42.0,0.6025996635431053,47.221933994409035,23.070546935054125,-20.221933994409035,0.007822547870774466
3,7,774,2,-19,False,,,25.3549,28.0,4098.800000036135,2.6450999999999993,False,0,0,12,6,0,0,42.0,0.6025996635431053,47.221933994409035,23.070546935054125,-7.85041647486937,0.0019443805151108517
3,4,463,4,-13,False,,,62.42097,34.0,10113.58999996446,-28.420969999999997,False,0,0,13,6,0,0,42.0,0.6025996635431053,47.221933994409035,23.070546935054125,-18.95310600195247,0.008574984046916841
3,5,774,2,-13,False,,,25.3549,37.0,3862.779999966733,11.6451,False,0,0,14,6,0,0,42.0,0.6025996635431053,47.221933994409035,23.070546935054125,1.1495835251306303,0.0001098882995114643
3,7,425,4,-16,False,,,68.59844,28.0,10267.255000013392,-40.59844,False,0,0,15,6,0,0,42.0,0.6025996635431053,47.221933994409035,23.070546935054125,-27.803457131489544,0.022785494455444068
3,5,302,5,-16,False,,,93.24415,78.0,3166.609999956563,-15.244150000000005,False,0,0,16,6,0,0,42.0,0.6025996635431053,47.221933994409035,23.070546935054125,10.824740566886987,0.007767534501152133
3,2,425,4,-16,False,,,68.59844,64.0,3868.910000019241,-4.5984399999999965,False,0,0,17,6,0,0,42.0,0.6025996635431053,47.221933994409035,23.070546935054125,8.196542868510456,0.0018669685042966531
3,4,329,5,-19,False,,,87.0672,29.0,24755.45499997679,-58.0672,False,0,0,18,6,0,0,42.0,0.6025996635431053,47.221933994409035,23.070546935054125,-35.32514634144209,0.07614445073623968
3,6,463,4,-13,False,,,62.42097,50.0,7249.055000022054,-12.420969999999997,False,0,0,19,6,0,0,42.0,0.6025996635431053,47.221933994409035,23.070546935054125,-2.95310600195247,0.00021726220093887388
3,4,550,3,-13,False,,,50.0,50.0,1265.1199999963865,0.0,False,0,0,20,6,0,0,42.0,0.6025996635431053,47.221933994409035,23.070546935054125,2.778066005590965,0.00016563852916439128
3,3,302,5,-16,False,,,93.24415,100.0,6370.189999986906,6.755849999999995,False,0,0,21,6,0,0,42.0,0.6025996635431053,47.221933994409035,23.070546935054125,32.82474056688699,0.0773646118463489
3,2,1000,1,-16,False,,,6.87518,0.0,4374.5700000436045,-6.87518,False,0,0,22,6,0,0,42.0,0.6025996635431053,47.221933994409035,23.070546935054125,-27.323668557763117,0.05209492876123168
3,3,504,3,-16,False,,,56.30039,50.0,6796.990000002552,-6.30039,False,0,0,23,6,0,0,42.0,0.6025996635431053,47.221933994409035,23.070546935054125,-0.12900481746066106,1.9157566814846919e-07
3,6,329,5,-19,False,,,87.0672,72.0,4352.335000003222,-15.0672,False,0,0,24,6,0,0,42.0,0.6025996635431053,47.221933994409035,23.070546935054125,7.6748536585579075,0.0030426331981842935
3,7,550,3,-16,False,,,50.0,50.0,933.6449999827892,0.0,False,0,0,25,6,0,0,42.0,0.6025996635431053,47.221933994409035,23.070546935054125,2.778066005590965,0.00016563852916439128
3,5,1000,1,-13,False,,,6.87518,50.0,7520.989999989979,43.12482,False,0,0,26,6,0,0,42.0,0.6025996635431053,47.221933994409035,23.070546935054125,22.676331442236883,0.041509528569761
3,2,599,3,-16,False,,,43.84378,50.0,840.0649999966845,6.156219999999998,False,0,0,27,6,0,0,42.0,0.6025996635431053,47.221933994409035,23.070546935054125,5.6186128942047375,0.0007061332618990366
3,3,425,4,-16,False,,,68.59844,50.0,4613.985000003595,-18.598439999999997,False,0,0,28,6,0,0,42.0,0.6025996635431053,47.221933994409035,23.070546935054125,-5.8034571314895445,0.0010431026630215458
3,6,550,3,-16,False,,,50.0,50.0,3144.6750000468455,0.0,False,0,0,29,6,0,0,42.0,0.6025996635431053,47.221933994409035,23.070546935054125,2.778066005590965,0.00016563852916439128
3,4,710,2,-13,False,,,31.58063,50.0,9545.920000004116,18.41937,False,0,0,30,6,0,0,42.0,0.6025996635431053,47.221933994409035,23.070546935054125,11.276964945535916,0.004006987943877335
3,5,710,2,-19,False,,,31.58063,50.0,7469.625000027008,18.41937,False,0,1,31,6,0,0,42.0,0.6025996635431053,47.221933994409035,23.070546935054125,11.276964945535916,0.004006987943877335
3,2,918,1,-19,False,,,13.04687,50.0,3832.8399999882095,36.95313,False,0,1,32,6,0,0,42.0,0.6025996635431053,47.221933994409035,23.070546935054125,19.828642907289748,0.025244087249925953
3,7,504,3,-13,False,,,56.30039,50.0,21266.145000001416,-6.30039,False,0,1,33,6,0,0,42.0,0.6025996635431053,47.221933994409035,23.070546935054125,-0.12900481746066106,1.9157566814846919e-07
3,6,1000,1,-16,False,,,6.87518,50.0,12820.100000011735,43.12482,False,0,1,34,6,0,0,42.0,0.6025996635431053,47.221933994409035,23.070546935054125,22.676331442236883,0.041509528569761
3,2,550,3,-13,False,,,50.0,37.0,7849.61499995552,-13.0,False,0,1,35,6,0,0,42.0,0.6025996635431053,47.221933994409035,23.070546935054125,-10.221933994409035,0.00197092204919047
3,7,918,1,-19,False,,,13.04687,35.0,9075.394999992568,21.95313,False,0,1,36,6,0,0,42.0,0.6025996635431053,47.221933994409035,23.070546935054125,4.828642907289748,0.001877728281207148
3,4,599,3,-19,False,,,43.84378,33.0,4974.344999995083,-10.843780000000002,False,0,1,37,6,0,0,42.0,0.6025996635431053,47.221933994409035,23.070546935054125,-11.381387105795262,0.002537316292065313
3,7,652,2,-13,False,,,37.72798,40.0,74283.95999997156,2.2720199999999977,False,0,1,38,6,0,0,42.0,0.6025996635431053,47.221933994409035,23.070546935054125,-1.5594909764345957,3.403502776809471e-05
3,4,302,5,-16,False,,,93.24415,50.0,4195.309999980964,-43.244150000000005,False,0,1,39,6,0,0,42.0,0.6025996635431053,47.221933994409035,23.070546935054125,-17.175259433113013,0.023623377927878317
3,5,918,1,-19,False,,,13.04687,71.0,3840.4149999842048,57.95313,False,0,1,40,6,0,0,42.0,0.6025996635431053,47.221933994409035,23.070546935054125,40.82864290728975,0.10281991398503101
3,4,425,4,-16,False,,,68.59844,75.0,5617.834999982733,6.4015600000000035,False,0,1,41,6,0,0,42.0,0.6025996635431053,47.221933994409035,23.070546935054125,19.196542868510456,0.010513263232807641
3,2,774,2,-13,False,,,25.3549,51.0,3247.414999990724,25.6451,False,0,1,42,6,0,0,42.0,0.6025996635431053,47.221933994409035,23.070546935054125,15.14958352513063,0.009097669763785248
3,7,390,4,-13,False,,,74.79787,50.0,64702.529999951366,-24.797870000000003,False,0,1,43,6,0,0,42.0,0.6025996635431053,47.221933994409035,23.070546935054125,-8.663944652810052,0.00295312653480914
3,2,329,5,-19,False,,,87.0672,100.0,2309.349999995902,12.9328,False,0,1,44,6,0,0,42.0,0.6025996635431053,47.221933994409035,23.070546935054125,35.67485365855791,0.07331204048605366
3,6,390,4,-16,False,,,74.79787,65.0,3885.6500000110827,-9.797870000000003,False,0,1,45,6,0,0,42.0,0.6025996635431053,47.221933994409035,23.070546935054125,6.336055347189948,0.0013431183353877652
3,7,329,5,-13,False,,,87.0672,50.0,7180.044999986421,-37.0672,False,0,1,46,6,0,0,42.0,0.6025996635431053,47.221933994409035,23.070546935054125,-14.325146341442093,0.013051101858884463
3,2,463,4,-19,False,,,62.42097,50.0,3378.550000023097,-12.420969999999997,False,0,1,47,6,0,0,42.0,0.6025996635431053,47.221933994409035,23.070546935054125,-2.95310600195247,0.00021726220093887388
3,6,302,5,-16,False,,,93.24415,50.0,15140.995000023395,-43.244150000000005,False,0,1,48,6,0,0,42.0,0.6025996635431053,47.221933994409035,23.070546935054125,-17.175259433113013,0.023623377927878317
3,5,425,4,-19,False,,,68.59844,69.0,4604.055000003427,0.40156000000000347,False,0,1,49,6,0,0,42.0,0.6025996635431053,47.221933994409035,23.070546935054125,13.196542868510456,0.004924487391709745
3,3,599,3,-13,False,,,43.84378,50.0,16338.095000013709,6.156219999999998,False,0,1,50,6,0,0,42.0,0.6025996635431053,47.221933994409035,23.070546935054125,5.6186128942047375,0.0007061332618990366
3,4,1000,1,-19,False,,,6.87518,14.0,2814.4450000254437,7.12482,False,0,1,51,6,0,0,42.0,0.6025996635431053,47.221933994409035,23.070546935054125,-13.323668557763117,0.011510752014229025
3,3,652,2,-19,False,,,37.72798,50.0,1736.2399999983609,12.272019999999998,False,0,1,52,6,0,0,42.0,0.6025996635431053,47.221933994409035,23.070546935054125,8.440509023565404,0.0018336224776416472
3,5,504,3,-19,False,,,56.30039,50.0,1648.1449999846518,-6.30039,False,0,1,53,6,0,0,42.0,0.6025996635431053,47.221933994409035,23.070546935054125,-0.12900481746066106,1.9157566814846919e-07
3,6,710,2,-19,False,,,31.58063,50.0,1005.4699999745935,18.41937,False,0,1,54,6,0,0,42.0,0.6025996635431053,47.221933994409035,23.070546935054125,11.276964945535916,0.004006987943877335
3,3,463,4,-13,False,,,62.42097,50.0,4606.330000038724,-12.420969999999997,False,0,1,55,6,0,0,42.0,0.6025996635431053,47.221933994409035,23.070546935054125,-2.95310600195247,0.00021726220093887388
3,4,652,2,-16,False,,,37.72798,50.0,2045.2199999708682,12.272019999999998,False,0,1,56,6,0,0,42.0,0.6025996635431053,47.221933994409035,23.070546935054125,8.440509023565404,0.0018336224776416472
3,3,358,5,-13,False,,,80.9736,72.0,5533.69000001112,-8.973600000000005,False,0,1,57,6,0,0,42.0,0.6025996635431053,47.221933994409035,23.070546935054125,10.486507436043127,0.004764839571141839
3,6,599,3,-19,False,,,43.84378,50.0,14907.904999970924,6.156219999999998,False,0,1,58,6,0,0,42.0,0.6025996635431053,47.221933994409035,23.070546935054125,5.6186128942047375,0.0007061332618990366
3,5,358,5,-19,False,,,80.9736,50.0,5016.379999986384,-30.973600000000005,False,0,1,59,6,0,0,42.0,0.6025996635431053,47.221933994409035,23.070546935054125,-11.513492563956873,0.0066560892980856365
3,3,1000,1,-16,False,,,6.87518,32.0,7216.7999999946915,25.12482,False,0,1,60,6,0,0,42.0,0.6025996635431053,47.221933994409035,23.070546935054125,4.676331442236883,0.002325684417672313
3,5,599,3,-13,False,,,43.84378,50.0,5200.870000000577,6.156219999999998,False,0,2,61,6,0,0,42.0,0.6025996635431053,47.221933994409035,23.070546935054125,5.6186128942047375,0.0007061332618990366
3,2,358,5,-13,False,,,80.9736,82.0,3339.3250000081025,1.0263999999999953,False,0,2,62,6,0,0,42.0,0.6025996635431053,47.221933994409035,23.070546935054125,20.486507436043127,0.018902984526127025
3,5,652,2,-16,False,,,37.72798,50.0,10236.124999995809,12.272019999999998,False,0,2,63,6,0,0,42.0,0.6025996635431053,47.221933994409035,23.070546935054125,8.440509023565404,0.0018336224776416472
3,4,358,5,-13,False,,,80.9736,50.0,4109.799999976531,-30.973600000000005,False,0,2,64,6,0,0,42.0,0.6025996635431053,47.221933994409035,23.070546935054125,-11.513492563956873,0.0066560892980856365
3,2,504,3,-19,False,,,56.30039,32.0,12760.94499998726,-24.30039,False,0,2,65,6,0,0,42.0,0.6025996635431053,47.221933994409035,23.070546935054125,-18.12900481746066,0.006709876914445389
3,3,329,5,-19,False,,,87.0672,35.0,8130.245000007562,-52.0672,False,0,2,66,6,0,0,42.0,0.6025996635431053,47.221933994409035,23.070546935054125,-29.325146341442093,0.05278158587988671
3,7,1000,1,-13,False,,,6.87518,3.0,2946.0099999560043,-3.8751800000000003,False,0,2,67,6,0,0,42.0,0.6025996635431053,47.221933994409035,23.070546935054125,-24.323668557763117,0.04093508784147337
3,6,358,5,-13,False,,,80.9736,83.0,4051.6499999794178,2.0263999999999953,False,0,2,68,6,0,0,42.0,0.6025996635431053,47.221933994409035,23.070546935054125,21.486507436043127,0.020832348531436652
3,7,599,3,-19,False,,,43.84378,70.0,9546.235000016168,26.156219999999998,False,0,2,69,6,0,0,42.0,0.6025996635431053,47.221933994409035,23.070546935054125,25.618612894204738,0.013711622455354167
3,5,329,5,-13,False,,,87.0672,90.0,6358.074999996461,2.9328000000000003,False,0,2,70,6,0,0,42.0,0.6025996635431053,47.221933994409035,23.070546935054125,25.674853658557907,0.0375434361004545
3,4,504,3,-16,False,,,56.30039,62.0,10028.330000001006,5.69961,False,0,2,71,6,0,0,42.0,0.6025996635431053,47.221933994409035,23.070546935054125,11.870995182539339,0.0029030259810729165
3,7,463,4,-19,False,,,62.42097,62.0,9996.245000045747,-0.42096999999999696,False,0,2,72,6,0,0,42.0,0.6025996635431053,47.221933994409035,23.070546935054125,9.04689399804753,0.001905866226953797
3,2,652,2,-16,False,,,37.72798,31.0,3919.0200000302866,-6.727980000000002,False,0,2,73,6,0,0,42.0,0.6025996635431053,47.221933994409035,23.070546935054125,-10.559490976434596,0.002462466983200606
3,7,358,5,-16,False,,,80.9736,50.0,6523.545000003651,-30.973600000000005,False,0,2,74,6,0,0,42.0,0.6025996635431053,47.221933994409035,23.070546935054125,-11.513492563956873,0.0066560892980856365
3,3,774,2,-16,False,,,25.3549,50.0,3632.704999996349,24.6451,False,0,2,75,6,0,0,42.0,0.6025996635431053,47.221933994409035,23.070546935054125,14.14958352513063,0.007977614975081385
3,4,918,1,-13,False,,,13.04687,50.0,2444.764999963809,36.95313,False,0,2,76,6,0,0,42.0,0.6025996635431053,47.221933994409035,23.070546935054125,19.828642907289748,0.025244087249925953
3,3,550,3,-19,False,,,50.0,50.0,8385.59499999974,0.0,False,0,2,77,6,0,0,42.0,0.6025996635431053,47.221933994409035,23.070546935054125,2.778066005590965,0.00016563852916439128
3,2,390,4,-13,False,,,74.79787,75.0,2712.225000024773,0.2021299999999968,False,0,2,78,6,0,0,42.0,0.6025996635431053,47.221933994409035,23.070546935054125,16.336055347189948,0.009469122464283372
3,6,504,3,-13,False,,,56.30039,50.0,2449.209999991581,-6.30039,False,0,2,79,6,0,0,42.0,0.6025996635431053,47.221933994409035,23.070546935054125,-0.12900481746066106,1.9157566814846919e-07
3,2,843,1,-13,False,,,19.19495,34.0,2738.520000013523,14.805050000000001,False,0,2,80,6,0,0,42.0,0.6025996635431053,47.221933994409035,23.070546935054125,0.9918533319000886,0.00013207475317149808
3,4,390,4,-19,False,,,74.79787,32.0,7035.759999998845,-42.79787,False,0,2,81,6,0,0,42.0,0.6025996635431053,47.221933994409035,23.070546935054125,-26.663944652810052,0.026742775172254207
3,3,843,1,-19,False,,,19.19495,30.0,7077.20999995945,10.805050000000001,False,0,2,82,6,0,0,42.0,0.6025996635431053,47.221933994409035,23.070546935054125,-3.0081466680999114,0.00025201014865156436
3,6,425,4,-19,False,,,68.59844,50.0,5945.475000014994,-18.598439999999997,False,0,2,83,6,0,0,42.0,0.6025996635431053,47.221933994409035,23.070546935054125,-5.8034571314895445,0.0010431026630215458
3,4,774,2,-19,False,,,25.3549,50.0,5101.115000026766,24.6451,False,0,2,84,6,0,0,42.0,0.6025996635431053,47.221933994409035,23.070546935054125,14.14958352513063,0.007977614975081385
3,6,843,1,-19,False,,,19.19495,31.0,12808.839999954216,11.805050000000001,False,0,2,85,6,0,0,42.0,0.6025996635431053,47.221933994409035,23.070546935054125,-2.0081466680999114,8.159556097539617e-05
3,5,463,4,-16,False,,,62.42097,20.0,8839.249999960884,-42.42097,False,0,2,86,6,0,0,42.0,0.6025996635431053,47.221933994409035,23.070546935054125,-32.95310600195247,0.025834109925270556
3,7,710,2,-16,False,,,31.58063,27.0,2851.139999984298,-4.580629999999999,False,0,2,87,6,0,0,42.0,0.6025996635431053,47.221933994409035,23.070546935054125,-11.723035054464084,0.0036783210568589676
3,3,390,4,-19,False,,,74.79787,78.0,4263.870000024326,3.202129999999997,False,0,2,88,6,0,0,42.0,0.6025996635431053,47.221933994409035,23.070546935054125,19.336055347189948,0.013342021199799596
3,6,652,2,-13,False,,,37.72798,30.0,2220.4050000291318,-7.727980000000002,False,0,2,89,6,0,0,42.0,0.6025996635431053,47.221933994409035,23.070546935054125,-11.559490976434596,0.00296902144961233
3,5,843,1,-16,False,,,19.19495,18.0,2245.7600000198,-1.1949499999999986,False,0,2,90,6,0,0,42.0,0.6025996635431053,47.221933994409035,23.070546935054125,-15.008146668099911,0.009599383618685469
4,6,550,3,-16,False,,,50.0,38.0,2763.7799996882677,-12.0,False,0,0,1,6,0,0,23.0,0.6166749577354588,51.89402012649511,26.15045524307589,-13.894020126495107,0.003988195577132297
4,7,425,4,-16,False,,,68.59844,18.0,4197.110000066459,-50.59844,False,0,0,2,6,0,0,23.0,0.6166749577354588,51.89402012649511,26.15045524307589,-43.62117299137441,0.05944691754759917
4,4,302,5,-16,False,,,93.24415,89.0,4537.150000222027,-4.244150000000005,False,0,0,3,6,0,0,23.0,0.6166749577354588,51.89402012649511,26.15045524307589,14.488893884852672,0.027848409250090262
4,6,463,4,-16,False,,,62.42097,65.0,1964.4800000824034,2.579030000000003,False,0,0,4,6,0,0,23.0,0.6166749577354588,51.89402012649511,26.15045524307589,6.609698814562478,0.0017873767040993249
4,2,918,1,-16,False,,,13.04687,11.0,2902.2400001995265,-2.04687,False,0,0,5,6,0,0,23.0,0.6166749577354588,51.89402012649511,26.15045524307589,-21.567198383096695,0.037588765316626464
4,6,652,2,-19,False,,,37.72798,12.0,1886.1400000751019,-25.727980000000002,False,0,0,6,6,0,0,23.0,0.6166749577354588,51.89402012649511,26.15045524307589,-33.47564334830883,0.03128507595527148
4,4,425,4,-16,False,,,68.59844,65.0,3135.1050003431737,-3.5984399999999965,False,0,0,7,6,0,0,23.0,0.6166749577354588,51.89402012649511,26.15045524307589,3.378827008625592,0.0009178679424351186
4,6,1000,1,-19,False,,,6.87518,12.0,2614.684999920428,5.12482,False,0,0,8,6,0,0,23.0,0.6166749577354588,51.89402012649511,26.15045524307589,-17.339344627007115,0.03297751486685983
4,2,652,2,-19,False,,,37.72798,18.0,2704.6550000086427,-19.727980000000002,False,0,0,9,6,0,0,23.0,0.6166749577354588,51.89402012649511,26.15045524307589,-27.47564334830883,0.021114129482742147
4,7,843,1,-19,False,,,19.19495,12.0,2435.8950001187623,-7.194949999999999,False,0,0,10,6,0,0,23.0,0.6166749577354588,51.89402012649511,26.15045524307589,-23.782698173114028,0.03448486615324065
4,3,710,2,-13,False,,,31.58063,21.0,2205.7150001637638,-10.58063,False,0,0,11,6,0,0,23.0,0.6166749577354588,51.89402012649511,26.15045524307589,-21.2605217543017,0.016128272900368976
4,2,599,3,-16,False,,,43.84378,41.0,3930.685000028461,-2.8437800000000024,False,0,0,12,6,0,0,23.0,0.6166749577354588,51.89402012649511,26.15045524307589,-7.674261423519276,0.001321814922238074
4,5,1000,1,-19,False,,,6.87518,50.0,1422.479999717325,43.12482,False,0,0,13,6,0,0,23.0,0.6166749577354588,51.89402012649511,26.15045524307589,20.660655372992885,0.03007793857140553
4,4,550,3,-13,False,,,50.0,73.0,1848.1050003319979,23.0,False,0,0,14,6,0,0,23.0,0.6166749577354588,51.89402012649511,26.15045524307589,21.105979873504893,0.01072704752716413
4,5,390,4,-16,False,,,74.79787,83.0,1920.8599999547005,8.202129999999997,False,0,0,15,6,0,0,23.0,0.6166749577354588,51.89402012649511,26.15045524307589,18.13646560686746,0.017811996234046328
4,4,843,1,-19,False,,,19.19495,76.0,2794.3149995990098,56.80505,False,0,0,16,6,0,0,23.0,0.6166749577354588,51.89402012649511,26.15045524307589,40.21730182688597,0.08283619052011867
4,5,358,5,-13,False,,,80.9736,88.0,3531.3799995929003,7.026399999999995,False,0,0,17,6,0,0,23.0,0.6166749577354588,51.89402012649511,26.15045524307589,19.90650424863793,0.02776366478842466
4,3,550,3,-16,False,,,50.0,78.0,2416.8050000444055,28.0,False,0,0,18,6,0,0,23.0,0.6166749577354588,51.89402012649511,26.15045524307589,26.105979873504893,0.016227988252608957
4,5,710,2,-13,False,,,31.58063,68.0,3286.3349998369813,36.41937,False,0,0,19,6,0,0,23.0,0.6166749577354588,51.89402012649511,26.15045524307589,25.7394782456983,0.021581653448439785
4,3,329,5,-13,False,,,87.0672,70.0,2244.7700002230704,-17.0672,False,0,0,20,6,0,0,23.0,0.6166749577354588,51.89402012649511,26.15045524307589,-1.2805041250315554,0.00020187700223467896
4,7,504,3,-19,False,,,56.30039,69.0,2394.429999869317,12.69961,False,0,0,21,6,0,0,23.0,0.6166749577354588,51.89402012649511,26.15045524307589,13.810816318836224,0.0052814274435098564
4,6,302,5,-13,False,,,93.24415,78.0,2676.0050002485514,-15.244150000000005,False,0,0,22,6,0,0,23.0,0.6166749577354588,51.89402012649511,26.15045524307589,3.488893884852672,0.004113976616460313
4,3,843,1,-16,False,,,19.19495,9.0,2177.059999667108,-10.194949999999999,False,0,0,23,6,0,0,23.0,0.6166749577354588,51.89402012649511,26.15045524307589,-26.782698173114028,0.043221150700439734
4,7,302,5,-19,False,,,93.24415,65.0,3420.384999830276,-28.244150000000005,False,0,0,24,6,0,0,23.0,0.6166749577354588,51.89402012649511,26.15045524307589,-9.511106115147328,0.0032807132540427874
4,3,425,4,-16,False,,,68.59844,62.0,3820.9849996492267,-6.5984399999999965,False,0,0,25,6,0,0,23.0,0.6166749577354588,51.89402012649511,26.15045524307589,0.37882700862559204,0.00016383270319332704
4,4,710,2,-16,False,,,31.58063,44.0,2777.0850001834333,12.41937,False,0,0,26,6,0,0,23.0,0.6166749577354588,51.89402012649511,26.15045524307589,1.739478245698301,4.957618128703493e-05
4,2,425,4,-13,False,,,68.59844,73.0,2220.0949997641146,4.4015600000000035,False,0,0,27,6,0,0,23.0,0.6166749577354588,51.89402012649511,26.15045524307589,11.378827008625592,0.005921916595446652
4,5,550,3,-19,False,,,50.0,56.0,5009.370000101626,6.0,False,0,0,28,6,0,0,23.0,0.6166749577354588,51.89402012649511,26.15045524307589,4.105979873504893,0.000510372053439335
4,2,302,5,-13,False,,,93.24415,89.0,3629.2900000698864,-4.244150000000005,False,0,0,29,6,0,0,23.0,0.6166749577354588,51.89402012649511,26.15045524307589,14.488893884852672,0.027848409250090262
4,7,774,2,-13,False,,,25.3549,60.0,4905.6000001728535,34.6451,False,0,0,30,6,0,0,23.0,0.6166749577354588,51.89402012649511,26.15045524307589,20.995590196905646,0.01732162372846162
4,5,599,3,-16,False,,,43.84378,50.0,1240.1050003245473,6.156219999999998,False,0,1,31,6,0,0,23.0,0.6166749577354588,51.89402012649511,26.15045524307589,1.325738576480724,5.9201319193106914e-05
4,6,329,5,-19,False,,,87.0672,64.0,2021.0750000551343,-23.0672,False,0,1,32,6,0,0,23.0,0.6166749577354588,51.89402012649511,26.15045524307589,-7.280504125031555,0.001278226640045485
4,7,710,2,-19,False,,,31.58063,36.0,3434.510000050068,4.419370000000001,False,0,1,33,6,0,0,23.0,0.6166749577354588,51.89402012649511,26.15045524307589,-6.260521754301699,0.001566650625655594
4,6,599,3,-13,False,,,43.84378,69.0,2590.3449999168515,25.156219999999998,False,0,1,34,6,0,0,23.0,0.6166749577354588,51.89402012649511,26.15045524307589,20.325738576480724,0.01013864130867716
4,4,1000,1,-16,False,,,6.87518,41.0,14227.634999901056,34.12482,False,0,1,35,6,0,0,23.0,0.6166749577354588,51.89402012649511,26.15045524307589,11.660655372992885,0.007982452362787266
4,6,710,2,-16,False,,,31.58063,38.0,4810.575000010431,6.419370000000001,False,0,1,36,6,0,0,23.0,0.6166749577354588,51.89402012649511,26.15045524307589,-4.260521754301699,0.0007798304426844162
4,7,390,4,-13,False,,,74.79787,62.0,3258.739999961108,-12.797870000000003,False,0,1,37,6,0,0,23.0,0.6166749577354588,51.89402012649511,26.15045524307589,-2.8635343931325394,1.8440202622047304e-05
4,2,843,1,-13,False,,,19.19495,23.0,2938.9349999837577,3.8050500000000014,False,0,1,38,6,0,0,23.0,0.6166749577354588,51.89402012649511,26.15045524307589,-12.782698173114028,0.01088179267939155
4,3,599,3,-19,False,,,43.84378,50.0,1975.205000024289,6.156219999999998,False,0,1,39,6,0,0,23.0,0.6166749577354588,51.89402012649511,26.15045524307589,1.325738576480724,5.9201319193106914e-05
4,5,918,1,-13,False,,,13.04687,50.0,1916.0199998877943,36.95313,False,0,1,40,6,0,0,23.0,0.6166749577354588,51.89402012649511,26.15045524307589,17.432801616903305,0.017162780628337877
4,4,652,2,-13,False,,,37.72798,50.0,2069.0750000067055,12.272019999999998,False,0,1,41,6,0,0,23.0,0.6166749577354588,51.89402012649511,26.15045524307589,4.524356651691171,0.0005317742680525984
4,7,550,3,-13,False,,,50.0,50.0,1509.2400000430644,0.0,False,0,1,42,6,0,0,23.0,0.6166749577354588,51.89402012649511,26.15045524307589,-1.894020126495107,3.587742903563231e-05
4,4,358,5,-19,False,,,80.9736,60.0,3753.7249997258186,-20.973600000000005,False,0,1,43,6,0,0,23.0,0.6166749577354588,51.89402012649511,26.15045524307589,-8.09349575136207,0.001653725060423249
4,2,390,4,-16,False,,,74.79787,64.0,2107.599999755621,-10.797870000000003,False,0,1,44,6,0,0,23.0,0.6166749577354588,51.89402012649511,26.15045524307589,-0.8635343931325394,7.788757871015951e-05
4,3,302,5,-19,False,,,93.24415,79.0,9916.749999858439,-14.244150000000005,False,0,1,45,6,0,0,23.0,0.6166749577354588,51.89402012649511,26.15045524307589,4.488893884852672,0.0053993279303258665
4,4,599,3,-16,False,,,43.84378,47.0,3012.7449999563396,3.1562199999999976,False,0,1,46,6,0,0,23.0,0.6166749577354588,51.89402012649511,26.15045524307589,-1.674261423519276,4.8852150421589084e-05
4,5,425,4,-13,False,,,68.59844,50.0,2264.685000292957,-18.598439999999997,False,0,1,47,6,0,0,23.0,0.6166749577354588,51.89402012649511,26.15045524307589,-11.621172991374408,0.0032703263224308893
4,2,504,3,-13,False,,,56.30039,50.0,2223.964999895543,-6.30039,False,0,1,48,6,0,0,23.0,0.6166749577354588,51.89402012649511,26.15045524307589,-5.189183681163776,0.00041326352346025797
4,3,463,4,-13,False,,,62.42097,81.0,4034.460000228137,18.579030000000003,False,0,1,49,6,0,0,23.0,0.6166749577354588,51.89402012649511,26.15045524307589,22.609698814562478,0.015996147845466324
4,5,302,5,-19,False,,,93.24415,84.0,2643.894999753684,-9.244150000000005,False,0,1,50,6,0,0,23.0,0.6166749577354588,51.89402012649511,26.15045524307589,9.488893884852672,0.014443057639956047
4,6,425,4,-19,False,,,68.59844,50.0,1716.1399996839464,-18.598439999999997,False,0,1,51,6,0,0,23.0,0.6166749577354588,51.89402012649511,26.15045524307589,-11.621172991374408,0.0032703263224308893
4,7,358,5,-13,False,,,80.9736,72.0,2885.9049999155104,-8.973600000000005,False,0,1,52,6,0,0,23.0,0.6166749577354588,51.89402012649511,26.15045524307589,3.9065042486379298,0.00232060892852073
4,6,918,1,-13,False,,,13.04687,30.0,2492.5800003111362,16.95313,False,0,1,53,6,0,0,23.0,0.6166749577354588,51.89402012649511,26.15045524307589,-2.567198383096695,0.0012674245041951141
4,3,652,2,-16,False,,,37.72798,25.0,2692.9600001312792,-12.727980000000002,False,0,1,54,6,0,0,23.0,0.6166749577354588,51.89402012649511,26.15045524307589,-20.47564334830883,0.011767190585622523
4,7,1000,1,-16,False,,,6.87518,36.0,3790.255000349134,29.12482,False,0,1,55,6,0,0,23.0,0.6166749577354588,51.89402012649511,26.15045524307589,6.660655372992885,0.0018173583288665317
4,5,774,2,-19,False,,,25.3549,50.0,2269.8300001211464,24.6451,False,0,1,56,6,0,0,23.0,0.6166749577354588,51.89402012649511,26.15045524307589,10.995590196905646,0.004360476066293162
4,3,1000,1,-13,False,,,6.87518,43.0,3492.214999627322,36.12482,False,0,1,57,6,0,0,23.0,0.6166749577354588,51.89402012649511,26.15045524307589,13.660655372992885,0.011670525192751219
4,2,710,2,-16,False,,,31.58063,50.0,1173.7899999134243,18.41937,False,0,1,58,6,0,0,23.0,0.6166749577354588,51.89402012649511,26.15045524307589,7.739478245698301,0.0017646313511638808
4,4,390,4,-19,False,,,74.79787,65.0,3578.220000024885,-9.797870000000003,False,0,1,59,6,0,0,23.0,0.6166749577354588,51.89402012649511,26.15045524307589,0.13646560686746056,0.00023670418842714117
4,2,358,5,-19,False,,,80.9736,57.0,6073.399999644607,-23.973600000000005,False,0,1,60,6,0,0,23.0,0.6166749577354588,51.89402012649511,26.15045524307589,-11.09349575136207,0.003953353382706531
4,7,652,2,-16,False,,,37.72798,46.0,4660.979999694973,8.272019999999998,False,0,2,61,6,0,0,23.0,0.6166749577354588,51.89402012649511,26.15045524307589,0.5243566516911713,4.057505788770246e-06
4,6,390,4,-13,False,,,74.79787,60.0,2710.1650000549853,-14.797870000000003,False,0,2,62,6,0,0,23.0,0.6166749577354588,51.89402012649511,26.15045524307589,-4.863534393132539,0.00030324061766173657
4,2,550,3,-19,False,,,50.0,50.0,2955.689999740571,0.0,False,0,2,63,6,0,0,23.0,0.6166749577354588,51.89402012649511,26.15045524307589,-1.894020126495107,3.587742903563231e-05
4,4,774,2,-19,False,,,25.3549,50.0,3325.4399998113513,24.6451,False,0,2,64,6,0,0,23.0,0.6166749577354588,51.89402012649511,26.15045524307589,10.995590196905646,0.004360476066293162
4,5,504,3,-13,False,,,56.30039,50.0,1296.5299999341369,-6.30039,False,0,2,65,6,0,0,23.0,0.6166749577354588,51.89402012649511,26.15045524307589,-5.189183681163776,0.00041326352346025797
4,4,918,1,-13,False,,,13.04687,50.0,1645.7599997520447,36.95313,False,0,2,66,6,0,0,23.0,0.6166749577354588,51.89402012649511,26.15045524307589,17.432801616903305,0.017162780628337877
4,5,329,5,-16,False,,,87.0672,59.0,3748.575000092387,-28.0672,False,0,2,67,6,0,0,23.0,0.6166749577354588,51.89402012649511,26.15045524307589,-12.280504125031555,0.005988617888416085
4,3,390,4,-19,False,,,74.79787,54.0,11631.100000347942,-20.797870000000003,False,0,2,68,6,0,0,23.0,0.6166749577354588,51.89402012649511,26.15045524307589,-10.86353439313254,0.003223128609547614
4,6,504,3,-19,False,,,56.30039,53.0,2863.3549995720387,-3.30039,False,0,2,69,6,0,0,23.0,0.6166749577354588,51.89402012649511,26.15045524307589,-2.189183681163776,3.1858213510045085e-05
4,2,463,4,-19,False,,,62.42097,55.0,4400.280000176281,-7.420969999999997,False,0,2,70,6,0,0,23.0,0.6166749577354588,51.89402012649511,26.15045524307589,-3.3903011854375222,0.00010705388138220858
4,7,918,1,-13,False,,,13.04687,50.0,1784.684999845922,36.95313,False,0,2,71,6,0,0,23.0,0.6166749577354588,51.89402012649511,26.15045524307589,17.432801616903305,0.017162780628337877
4,2,329,5,-16,False,,,87.0672,64.0,3395.0700000859797,-23.0672,False,0,2,72,6,0,0,23.0,0.6166749577354588,51.89402012649511,26.15045524307589,-7.280504125031555,0.001278226640045485
4,6,843,1,-16,False,,,19.19495,45.0,3216.200000140816,25.80505,False,0,2,73,6,0,0,23.0,0.6166749577354588,51.89402012649511,26.15045524307589,9.217301826885972,0.0034169322422747273
4,3,358,5,-16,False,,,80.9736,61.0,2705.330000258982,-19.973600000000005,False,0,2,74,6,0,0,23.0,0.6166749577354588,51.89402012649511,26.15045524307589,-7.09349575136207,0.0011064133342672795
4,5,652,2,-16,False,,,37.72798,50.0,1875.9400001727045,12.272019999999998,False,0,2,75,6,0,0,23.0,0.6166749577354588,51.89402012649511,26.15045524307589,4.524356651691171,0.0005317742680525984
4,6,358,5,-16,False,,,80.9736,59.0,3117.2650000080466,-21.973600000000005,False,0,2,76,6,0,0,23.0,0.6166749577354588,51.89402012649511,26.15045524307589,-9.09349575136207,0.002310652310548447
4,7,599,3,-16,False,,,43.84378,50.0,3379.2849997989833,6.156219999999998,False,0,2,77,6,0,0,23.0,0.6166749577354588,51.89402012649511,26.15045524307589,1.325738576480724,5.9201319193106914e-05
4,3,918,1,-19,False,,,13.04687,50.0,1387.2799999080598,36.95313,False,0,2,78,6,0,0,23.0,0.6166749577354588,51.89402012649511,26.15045524307589,17.432801616903305,0.017162780628337877
4,4,504,3,-19,False,,,56.30039,50.0,1000.50999969244,-6.30039,False,0,2,79,6,0,0,23.0,0.6166749577354588,51.89402012649511,26.15045524307589,-5.189183681163776,0.00041326352346025797
4,5,463,4,-19,False,,,62.42097,50.0,998.7200000323355,-12.420969999999997,False,0,2,80,6,0,0,23.0,0.6166749577354588,51.89402012649511,26.15045524307589,-8.390301185437522,0.0013438614528997821
4,2,1000,1,-19,False,,,6.87518,19.0,3369.5399998687208,12.12482,False,0,2,81,6,0,0,23.0,0.6166749577354588,51.89402012649511,26.15045524307589,-10.339344627007115,0.013501836537248674
4,3,504,3,-13,False,,,56.30039,71.0,2228.6649998277426,14.69961,False,0,2,82,6,0,0,23.0,0.6166749577354588,51.89402012649511,26.15045524307589,15.810816318836224,0.006800170675517837
4,4,463,4,-13,False,,,62.42097,66.0,3445.07999997586,3.579030000000003,False,0,2,83,6,0,0,23.0,0.6166749577354588,51.89402012649511,26.15045524307589,7.609698814562478,0.0022600311038595356
4,3,774,2,-19,False,,,25.3549,17.0,1857.2149998508394,-8.3549,False,0,2,84,6,0,0,23.0,0.6166749577354588,51.89402012649511,26.15045524307589,-22.004409803094354,0.02261193010810668
4,7,329,5,-16,False,,,87.0672,17.0,3086.769999936223,-70.0672,False,0,2,85,6,0,0,23.0,0.6166749577354588,51.89402012649511,26.15045524307589,-54.280504125031555,0.18242348928536167
4,2,774,2,-13,False,,,25.3549,11.0,2020.6699999980628,-14.3549,False,0,2,86,6,0,0,23.0,0.6166749577354588,51.89402012649511,26.15045524307589,-28.004409803094354,0.03599340552269351
4,5,843,1,-16,False,,,19.19495,24.0,2943.334999959916,4.805050000000001,False,0,2,87,6,0,0,23.0,0.6166749577354588,51.89402012649511,26.15045524307589,-11.782698173114028,0.009392939495993392
4,7,463,4,-19,False,,,62.42097,50.0,1910.3500000201166,-12.420969999999997,False,0,2,88,6,0,0,23.0,0.6166749577354588,51.89402012649511,26.15045524307589,-8.390301185437522,0.0013438614528997821
4,6,774,2,-13,False,,,25.3549,50.0,3953.999999910593,24.6451,False,0,2,89,6,0,0,23.0,0.6166749577354588,51.89402012649511,26.15045524307589,10.995590196905646,0.004360476066293162
4,4,329,5,-13,False,,,87.0672,66.0,3056.570000015199,-21.0672,False,0,2,90,6,0,0,23.0,0.6166749577354588,51.89402012649511,26.15045524307589,-5.280504125031555,0.00036476223226201477
8,4,425,4,-19,False,,,68.59844,100.0,1505.170000018552,31.401560000000003,False,0,0,1,6,0,0,42.0,0.9272330846335461,46.367057599264896,57.77717626758946,32.14163678360909,0.054606697993505746
8,3,329,5,-13,False,,,87.0672,100.0,1505.0200000405312,12.9328,False,0,0,2,6,0,0,42.0,0.9272330846335461,46.367057599264896,57.77717626758946,10.800177434288798,0.012149965405887602
8,7,1000,1,-16,False,,,6.87518,0.0,1785.0350000080653,-6.87518,False,0,0,3,6,0,0,42.0,0.9272330846335461,46.367057599264896,57.77717626758946,3.465553339209895,0.0003324234415100668
8,3,504,3,-13,False,,,56.30039,50.0,332.4150000116788,-6.30039,False,0,0,4,6,0,0,42.0,0.9272330846335461,46.367057599264896,57.77717626758946,-3.647437376937731,0.0008505147372264877
8,7,774,2,-13,False,,,25.3549,0.0,1331.1049999902025,-25.3549,False,0,0,5,6,0,0,42.0,0.9272330846335461,46.367057599264896,57.77717626758946,-17.888574882492524,0.026650478198854303
8,6,463,4,-13,False,,,62.42097,100.0,6635.0600000005215,37.57903,False,0,0,6,6,0,0,42.0,0.9272330846335461,46.367057599264896,57.77717626758946,39.27996948544713,0.06660291292584544
8,2,504,3,-13,False,,,56.30039,50.0,567.1549999970011,-6.30039,False,0,0,7,6,0,0,42.0,0.9272330846335461,46.367057599264896,57.77717626758946,-3.647437376937731,0.0008505147372264877
8,4,329,5,-16,False,,,87.0672,100.0,1490.8350000041537,12.9328,False,0,0,8,6,0,0,42.0,0.9272330846335461,46.367057599264896,57.77717626758946,10.800177434288798,0.012149965405887597
8,7,463,4,-16,False,,,62.42097,50.0,2947.0149999833666,-12.420969999999997,False,0,0,9,6,0,0,42.0,0.9272330846335461,46.367057599264896,57.77717626758946,-10.720030514552867,0.006106411609414422
8,4,550,3,-16,False,,,50.0,50.0,194.99499996891245,0.0,False,0,0,10,6,0,0,42.0,0.9272330846335461,46.367057599264896,57.77717626758946,3.6329424007351037,0.00023157553968525575
8,7,329,5,-13,False,,,87.0672,100.0,1897.274999995716,12.9328,False,0,0,11,6,0,0,42.0,0.9272330846335461,46.367057599264896,57.77717626758946,10.800177434288798,0.012149965405887597
8,3,425,4,-19,False,,,68.59844,75.0,1499.3050000048243,6.4015600000000035,False,0,0,12,6,0,0,42.0,0.9272330846335461,46.367057599264896,57.77717626758946,7.141636783609087,0.0022438041158638197
8,2,774,2,-13,False,,,25.3549,0.0,2158.980000007432,-25.3549,False,0,0,13,6,0,0,42.0,0.9272330846335461,46.367057599264896,57.77717626758946,-17.888574882492524,0.026650478198854303
8,6,329,5,-16,False,,,87.0672,82.0,1603.1099999672733,-5.0672,False,0,0,14,6,0,0,42.0,0.9272330846335461,46.367057599264896,57.77717626758946,-7.199822565711202,0.006608778206192059
8,4,652,2,-13,False,,,37.72798,26.0,2052.540000004228,-11.727980000000002,False,0,0,15,6,0,0,42.0,0.9272330846335461,46.367057599264896,57.77717626758946,-6.186207475699206,0.002575428000480836
8,7,550,3,-16,False,,,50.0,37.0,2135.000000009313,-13.0,False,0,0,16,6,0,0,42.0,0.9272330846335461,46.367057599264896,57.77717626758946,-9.367057599264896,0.0040847724166059775
8,4,1000,1,-19,False,,,6.87518,0.0,3873.1100000441074,-6.87518,False,0,0,17,6,0,0,42.0,0.9272330846335461,46.367057599264896,57.77717626758946,3.465553339209895,0.0003324234415100668
8,6,599,3,-13,False,,,43.84378,32.0,1735.240000009071,-11.843780000000002,False,0,0,18,6,0,0,42.0,0.9272330846335461,46.367057599264896,57.77717626758946,-7.25327834029018,0.0028269453329868403
8,2,1000,1,-13,False,,,6.87518,0.0,1584.999999962747,-6.87518,False,0,0,19,6,0,0,42.0,0.9272330846335461,46.367057599264896,57.77717626758946,3.465553339209895,0.0003324234415100668
8,6,774,2,-13,False,,,25.3549,28.0,2317.0300000347197,2.6450999999999993,False,0,0,20,6,0,0,42.0,0.9272330846335461,46.367057599264896,57.77717626758946,10.111425117507476,0.005095042341178163
8,3,843,1,-19,False,,,19.19495,0.0,1338.770000031218,-19.19495,False,0,0,21,6,0,0,42.0,0.9272330846335461,46.367057599264896,57.77717626758946,-10.770480799675257,0.01391813318495665
8,5,652,2,-16,False,,,37.72798,38.0,1412.7900000312366,0.2720199999999977,False,0,0,22,6,0,0,42.0,0.9272330846335461,46.367057599264896,57.77717626758946,5.813792524300794,0.0008957817313393475
8,6,843,1,-19,False,,,19.19495,31.0,1771.2099999771453,11.805050000000001,False,0,0,23,6,0,0,42.0,0.9272330846335461,46.367057599264896,57.77717626758946,20.229519200324745,0.030660755564888
8,5,504,3,-19,False,,,56.30039,66.0,1347.1900000004098,9.69961,False,0,0,24,6,0,0,42.0,0.9272330846335461,46.367057599264896,57.77717626758946,12.35256262306227,0.005028504681899527
8,3,710,2,-16,False,,,31.58063,34.0,2073.1200000154786,2.4193700000000007,False,0,0,25,6,0,0,42.0,0.9272330846335461,46.367057599264896,57.77717626758946,8.917326490802903,0.0030699506792772244
8,5,390,4,-13,False,,,74.79787,100.0,1263.4549999493174,25.202129999999997,False,0,0,26,6,0,0,42.0,0.9272330846335461,46.367057599264896,57.77717626758946,24.977918810392907,0.0415166046915711
8,2,358,5,-19,False,,,80.9736,100.0,2351.100000028964,19.026399999999995,False,0,0,27,6,0,0,42.0,0.9272330846335461,46.367057599264896,57.77717626758946,17.841597664268974,0.026744065551799864
8,5,1000,1,-16,False,,,6.87518,0.0,1695.0899999937974,-6.87518,False,0,0,28,6,0,0,42.0,0.9272330846335461,46.367057599264896,57.77717626758946,3.465553339209895,0.0003324234415100668
8,2,425,4,-13,False,,,68.59844,67.0,1570.899999991525,-1.5984399999999965,False,0,0,29,6,0,0,42.0,0.9272330846335461,46.367057599264896,57.77717626758946,-0.858363216390913,0.00015008736607384377
8,5,329,5,-19,False,,,87.0672,77.0,1791.0249999840744,-10.0672,False,0,0,30,6,0,0,42.0,0.9272330846335461,46.367057599264896,57.77717626758946,-12.199822565711202,0.01808883670972086
8,4,463,4,-13,False,,,62.42097,50.0,883.109999995213,-12.420969999999997,False,0,1,31,6,0,0,42.0,0.9272330846335461,46.367057599264896,57.77717626758946,-10.720030514552867,0.006106411609414422
8,6,918,1,-13,False,,,13.04687,27.0,1247.1350000123493,13.95313,False,0,1,32,6,0,0,42.0,0.9272330846335461,46.367057599264896,57.77717626758946,23.33388875830479,0.052429978770644904
8,5,425,4,-19,False,,,68.59844,66.0,1603.4699999727309,-2.5984399999999965,False,0,1,33,6,0,0,42.0,0.9272330846335461,46.367057599264896,57.77717626758946,-1.858363216390913,0.0003882276345451683
8,4,918,1,-16,False,,,13.04687,0.0,1903.1200000317767,-13.04687,False,0,1,34,6,0,0,42.0,0.9272330846335461,46.367057599264896,57.77717626758946,-3.6661112416952086,0.003414134447412961
8,6,390,4,-19,False,,,74.79787,63.0,1415.0200000149198,-11.797870000000003,False,0,1,35,6,0,0,42.0,0.9272330846335461,46.367057599264896,57.77717626758946,-12.022081189607093,0.011317856873394186
8,4,774,2,-16,False,,,25.3549,29.0,1389.049999997951,3.6450999999999993,False,0,1,36,6,0,0,42.0,0.9272330846335461,46.367057599264896,57.77717626758946,11.111425117507476,0.006361527336929272
8,3,390,4,-13,False,,,74.79787,72.0,1050.9799999999814,-2.797870000000003,False,0,1,37,6,0,0,42.0,0.9272330846335461,46.367057599264896,57.77717626758946,-3.0220811896070927,0.0009576273494704782
8,4,358,5,-13,False,,,80.9736,68.0,1014.9799999780953,-12.973600000000005,False,0,1,38,6,0,0,42.0,0.9272330846335461,46.367057599264896,57.77717626758946,-14.158402335731026,0.019371700956974068
8,6,504,3,-19,False,,,56.30039,50.0,133.1849999842234,-6.30039,False,0,1,39,6,0,0,42.0,0.9272330846335461,46.367057599264896,57.77717626758946,-3.647437376937731,0.0008505147372264877
8,7,918,1,-13,False,,,13.04687,21.0,2255.055000016,7.95313,False,0,1,40,6,0,0,42.0,0.9272330846335461,46.367057599264896,57.77717626758946,17.33388875830479,0.027260591276661864
8,2,390,4,-16,False,,,74.79787,100.0,1633.0799999996088,25.202129999999997,False,0,1,41,6,0,0,42.0,0.9272330846335461,46.367057599264896,57.77717626758946,24.977918810392907,0.0415166046915711
8,5,302,5,-16,False,,,93.24415,100.0,1564.879999961704,6.755849999999995,False,0,1,42,6,0,0,42.0,0.9272330846335461,46.367057599264896,57.77717626758946,3.6624408672450386,0.0015863038012807157
8,6,710,2,-16,False,,,31.58063,28.0,1465.074999956414,-3.5806299999999993,False,0,1,43,6,0,0,42.0,0.9272330846335461,46.367057599264896,57.77717626758946,2.9173264908029033,0.00011505700946192204
8,2,302,5,-16,False,,,93.24415,100.0,1486.510000017006,6.755849999999995,False,0,1,44,6,0,0,42.0,0.9272330846335461,46.367057599264896,57.77717626758946,3.6624408672450386,0.0015863038012807157
8,5,774,2,-19,False,,,25.3549,24.0,1806.464999972377,-1.3549000000000007,False,0,1,45,6,0,0,42.0,0.9272330846335461,46.367057599264896,57.77717626758946,6.111425117507476,0.001433462351737944
8,6,358,5,-19,False,,,80.9736,69.0,1427.1050000097603,-11.973600000000005,False,0,1,46,6,0,0,42.0,0.9272330846335461,46.367057599264896,57.77717626758946,-13.158402335731026,0.016827877310211816
8,7,710,2,-19,False,,,31.58063,21.0,2248.9499999792315,-10.58063,False,0,1,47,6,0,0,42.0,0.9272330846335461,46.367057599264896,57.77717626758946,-4.082673509197097,0.001714041832994836
8,2,550,3,-19,False,,,50.0,21.0,2803.0300000100397,-29.0,False,0,1,48,6,0,0,42.0,0.9272330846335461,46.367057599264896,57.77717626758946,-25.367057599264896,0.026018588446656662
8,3,358,5,-19,False,,,80.9736,67.0,2071.090000041295,-13.973600000000005,False,0,1,49,6,0,0,42.0,0.9272330846335461,46.367057599264896,57.77717626758946,-15.158402335731026,0.02209450589666216
8,5,550,3,-13,False,,,50.0,39.0,2567.434999975376,-11.0,False,0,1,50,6,0,0,42.0,0.9272330846335461,46.367057599264896,57.77717626758946,-7.367057599264896,0.0026768624720269274
8,3,1000,1,-13,False,,,6.87518,0.0,3658.8750000228174,-6.87518,False,0,1,51,6,0,0,42.0,0.9272330846335461,46.367057599264896,57.77717626758946,3.465553339209895,0.0003324234415100668
8,7,504,3,-19,False,,,56.30039,50.0,454.98500001849607,-6.30039,False,0,1,52,6,0,0,42.0,0.9272330846335461,46.367057599264896,57.77717626758946,-3.647437376937731,0.0008505147372264877
8,5,918,1,-13,False,,,13.04687,0.0,1337.07000000868,-13.04687,False,0,1,53,6,0,0,42.0,0.9272330846335461,46.367057599264896,57.77717626758946,-3.6661112416952086,0.003414134447412961
8,4,599,3,-19,False,,,43.84378,50.0,1107.064999989234,6.156219999999998,False,0,1,54,6,0,0,42.0,0.9272330846335461,46.367057599264896,57.77717626758946,10.74672165970982,0.0035294306762499728
8,2,918,1,-16,False,,,13.04687,15.0,2186.809999984689,1.9531299999999998,False,0,1,55,6,0,0,42.0,0.9272330846335461,46.367057599264896,57.77717626758946,11.333888758304791,0.010249476722322222
8,3,774,2,-13,False,,,25.3549,50.0,1542.4699999857694,24.6451,False,0,1,56,6,0,0,42.0,0.9272330846335461,46.367057599264896,57.77717626758946,32.11142511750748,0.06539842809903597
8,7,358,5,-16,False,,,80.9736,72.0,1198.995000042487,-8.973600000000005,False,0,1,57,6,0,0,42.0,0.9272330846335461,46.367057599264896,57.77717626758946,-10.158402335731026,0.010270294127480107
8,3,599,3,-16,False,,,43.84378,28.0,1258.8049999903888,-15.843780000000002,False,0,1,58,6,0,0,42.0,0.9272330846335461,46.367057599264896,57.77717626758946,-11.25327834029018,0.006113108110279869
8,2,652,2,-19,False,,,37.72798,30.0,1153.070000000298,-7.727980000000002,False,0,1,59,6,0,0,42.0,0.9272330846335461,46.367057599264896,57.77717626758946,-2.186207475699206,0.0005691045497333768
8,7,390,4,-13,False,,,74.79787,71.0,1142.3300000024028,-3.797870000000003,False,0,1,60,6,0,0,42.0,0.9272330846335461,46.367057599264896,57.77717626758946,-4.022081189607093,0.0015466728240301959
8,2,599,3,-16,False,,,43.84378,26.0,1076.9450000370853,-17.843780000000002,False,0,2,61,6,0,0,42.0,0.9272330846335461,46.367057599264896,57.77717626758946,-13.25327834029018,0.008225590039565224
8,4,710,2,-19,False,,,31.58063,11.0,1147.095000022091,-20.58063,False,0,2,62,6,0,0,42.0,0.9272330846335461,46.367057599264896,57.77717626758946,-14.082673509197097,0.013425573242224605
8,7,425,4,-19,False,,,68.59844,68.0,1571.1749999900348,-0.5984399999999965,False,0,2,63,6,0,0,42.0,0.9272330846335461,46.367057599264896,57.77717626758946,0.14163678360908705,2.3025955868090708e-05
8,5,843,1,-19,False,,,19.19495,0.0,1337.5399999786168,-19.19495,False,0,2,64,6,0,0,42.0,0.9272330846335461,46.367057599264896,57.77717626758946,-10.770480799675257,0.01391813318495665
8,6,550,3,-16,False,,,50.0,50.0,2192.9499999969266,0.0,False,0,2,65,6,0,0,42.0,0.9272330846335461,46.367057599264896,57.77717626758946,3.6329424007351037,0.00023157553968525575
8,2,843,1,-19,False,,,19.19495,24.0,1852.985000004992,4.805050000000001,False,0,2,66,6,0,0,42.0,0.9272330846335461,46.367057599264896,57.77717626758946,13.229519200324743,0.011864305162989041
8,7,599,3,-13,False,,,43.84378,50.0,281.14999999525025,6.156219999999998,False,0,2,67,6,0,0,42.0,0.9272330846335461,46.367057599264896,57.77717626758946,10.74672165970982,0.0035294306762499728
8,6,302,5,-13,False,,,93.24415,100.0,1586.974999983795,6.755849999999995,False,0,2,68,6,0,0,42.0,0.9272330846335461,46.367057599264896,57.77717626758946,3.6624408672450386,0.0015863038012807157
8,3,652,2,-19,False,,,37.72798,25.0,1599.1950000170618,-12.727980000000002,False,0,2,69,6,0,0,42.0,0.9272330846335461,46.367057599264896,57.77717626758946,-7.186207475699206,0.0033030153258292046
8,7,302,5,-19,False,,,93.24415,100.0,1433.0400000326335,6.755849999999995,False,0,2,70,6,0,0,42.0,0.9272330846335461,46.367057599264896,57.77717626758946,3.6624408672450386,0.0015863038012807157
8,3,918,1,-16,False,,,13.04687,0.0,1224.9949999968521,-13.04687,False,0,2,71,6,0,0,42.0,0.9272330846335461,46.367057599264896,57.77717626758946,-3.6661112416952086,0.003414134447412961
8,5,358,5,-13,False,,,80.9736,74.0,2209.260000032373,-6.973600000000005,False,0,2,72,6,0,0,42.0,0.9272330846335461,46.367057599264896,57.77717626758946,-8.158402335731026,0.006793478470288185
8,7,843,1,-19,False,,,19.19495,21.0,1879.1249999776483,1.8050500000000014,False,0,2,73,6,0,0,42.0,0.9272330846335461,46.367057599264896,57.77717626758946,10.229519200324743,0.006490086821388037
8,3,302,5,-16,False,,,93.24415,100.0,1672.8749999892898,6.755849999999995,False,0,2,74,6,0,0,42.0,0.9272330846335461,46.367057599264896,57.77717626758946,3.6624408672450386,0.0015863038012807157
8,6,425,4,-16,False,,,68.59844,76.0,1939.0450000064448,7.4015600000000035,False,0,2,75,6,0,0,42.0,0.9272330846335461,46.367057599264896,57.77717626758946,8.141636783609087,0.0030053735717826377
8,7,652,2,-16,False,,,37.72798,27.0,1697.1599999815226,-10.727980000000002,False,0,2,76,6,0,0,42.0,0.9272330846335461,46.367057599264896,57.77717626758946,-5.186207475699206,0.0019382432601970675
8,2,463,4,-19,False,,,62.42097,69.0,1433.9150000014342,6.579030000000003,False,0,2,77,6,0,0,42.0,0.9272330846335461,46.367057599264896,57.77717626758946,8.279969485447133,0.002462110928003686
8,6,652,2,-19,False,,,37.72798,31.0,1367.9099999717437,-6.727980000000002,False,0,2,78,6,0,0,42.0,0.9272330846335461,46.367057599264896,57.77717626758946,-1.1862074756992058,0.0002935301497080168
8,4,302,5,-19,False,,,93.24415,100.0,1847.0450000022538,6.755849999999995,False,0,2,79,6,0,0,42.0,0.9272330846335461,46.367057599264896,57.77717626758946,3.6624408672450386,0.0015863038012807157
8,2,710,2,-16,False,,,31.58063,0.0,1491.344999987632,-31.58063,False,0,2,80,6,0,0,42.0,0.9272330846335461,46.367057599264896,57.77717626758946,-25.082673509197097,0.03911825052041392
8,4,390,4,-16,False,,,74.79787,50.0,1569.3650000030175,-24.797870000000003,False,0,2,81,6,0,0,42.0,0.9272330846335461,46.367057599264896,57.77717626758946,-25.022081189607093,0.046377391079137686
8,5,710,2,-13,False,,,31.58063,23.0,2083.214999991469,-8.58063,False,0,2,82,6,0,0,42.0,0.9272330846335461,46.367057599264896,57.77717626758946,-2.0826735091970967,0.0007026438865293037
8,4,843,1,-13,False,,,19.19495,18.0,1453.3599999849685,-1.1949499999999986,False,0,2,83,6,0,0,42.0,0.9272330846335461,46.367057599264896,57.77717626758946,7.229519200324743,0.0027247104353147356
8,3,463,4,-16,False,,,62.42097,61.0,1556.8850000272505,-1.420969999999997,False,0,2,84,6,0,0,42.0,0.9272330846335461,46.367057599264896,57.77717626758946,0.2799694854471326,1.743368692433879e-05
8,4,504,3,-13,False,,,56.30039,50.0,519.2649999517016,-6.30039,False,0,2,85,6,0,0,42.0,0.9272330846335461,46.367057599264896,57.77717626758946,-3.647437376937731,0.0008505147372264877
8,6,1000,1,-16,False,,,6.87518,0.0,1467.0850000111386,-6.87518,False,0,2,86,6,0,0,42.0,0.9272330846335461,46.367057599264896,57.77717626758946,3.465553339209895,0.0003324234415100668
8,5,599,3,-16,False,,,43.84378,42.0,1416.7000000015832,-1.8437800000000024,False,0,2,87,6,0,0,42.0,0.9272330846335461,46.367057599264896,57.77717626758946,2.74672165970982,8.787803054074998e-05
8,2,329,5,-13,False,,,87.0672,100.0,1248.940000019502,12.9328,False,0,2,88,6,0,0,42.0,0.9272330846335461,46.367057599264896,57.77717626758946,10.800177434288798,0.012149965405887597
8,5,463,4,-16,False,,,62.42097,67.0,1031.5049999626353,4.579030000000003,False,0,2,89,6,0,0,42.0,0.9272330846335461,46.367057599264896,57.77717626758946,6.279969485447133,0.0013083343950176286
8,3,550,3,-19,False,,,50.0,45.0,1380.7899999665096,-5.0,False,0,2,90,6,0,0,42.0,0.9272330846335461,46.367057599264896,57.77717626758946,-1.3670575992648963,0.0002315553838594899
6,2,358,5,-19,True,,,80.9736,58.0,4432.074999902397,-22.973600000000005,False,1,0,1,6,0,0,30.0,0.8911736761645627,52.19324940579652,45.74462490758823,-22.530765111392867,0.04659559907259489
6,5,463,4,-19,True,,,62.42097,50.0,2161.5949999541044,-12.420969999999997,False,1,0,2,6,0,0,30.0,0.8911736761645627,52.19324940579652,45.74462490758823,-13.55710282912365,0.009202963461629318
6,6,1000,1,-16,True,,,6.87518,0.0,2357.2200001217425,-6.87518,False,1,0,3,6,0,0,30.0,0.8911736761645627,52.19324940579652,45.74462490758823,-12.738671615620717,0.033370750394318166
6,2,710,2,-13,True,,,31.58063,26.0,3116.009999997914,-5.580629999999999,False,1,0,4,6,0,0,30.0,0.8911736761645627,52.19324940579652,45.74462490758823,-9.341505698560965,0.006703374520425748
6,7,1000,1,-19,True,,,6.87518,25.0,2734.3600001186132,18.12482,False,1,0,5,6,0,0,30.0,0.8911736761645627,52.19324940579652,45.74462490758823,12.261328384379283,0.01502054331921661
6,6,599,3,-16,True,,,43.84378,50.0,1829.2950000613928,6.156219999999998,False,1,0,6,6,0,0,30.0,0.8911736761645627,52.19324940579652,45.74462490758823,3.4390293744962506,0.00024242138623618815
6,2,843,1,-16,True,,,19.19495,25.0,2185.6749998405576,5.805050000000001,False,1,0,7,6,0,0,30.0,0.8911736761645627,52.19324940579652,45.74462490758823,0.9900603175764076,6.396494776480255e-05
6,5,550,3,-16,True,,,50.0,50.0,1849.0699999965727,0.0,False,1,0,8,6,0,0,30.0,0.8911736761645627,52.19324940579652,45.74462490758823,-2.1932494057965215,0.00034764492496457513
6,7,390,4,-13,True,,,74.79787,98.0,2531.4650000073016,23.202129999999997,False,1,0,9,6,0,0,30.0,0.8911736761645627,52.19324940579652,45.74462490758823,23.11936103076428,0.03933180771258831
6,5,918,1,-13,True,,,13.04687,40.0,3273.390000220388,26.95313,False,1,0,10,6,0,0,30.0,0.8911736761645627,52.19324940579652,45.74462490758823,21.61488904111147,0.04550445055098449
6,3,504,3,-16,True,,,56.30039,56.0,3527.179999742657,-0.30039000000000016,False,1,0,11,6,0,0,30.0,0.8911736761645627,52.19324940579652,45.74462490758823,-1.9574328364993292,0.00026642395746662455
6,6,329,5,-13,True,,,87.0672,99.0,1726.504999678582,11.9328,False,1,0,12,6,0,0,30.0,0.8911736761645627,52.19324940579652,45.74462490758823,12.894245800436067,0.02098966436157613
6,3,463,4,-13,True,,,62.42097,73.0,2519.3150001578033,10.579030000000003,False,1,0,13,6,0,0,30.0,0.8911736761645627,52.19324940579652,45.74462490758823,9.44289717087635,0.003873763439083663
6,5,652,2,-19,True,,,37.72798,35.0,1458.4599998779595,-2.7279800000000023,False,1,0,14,6,0,0,30.0,0.8911736761645627,52.19324940579652,45.74462490758823,-5.96567284911508,0.0024318579281112774
6,7,599,3,-13,True,,,43.84378,50.0,2291.199999861419,6.156219999999998,False,1,0,15,6,0,0,30.0,0.8911736761645627,52.19324940579652,45.74462490758823,3.4390293744962506,0.00024242138623618815
6,4,425,4,-16,True,,,68.59844,82.0,3864.1900001093745,13.401560000000003,False,1,0,16,6,0,0,30.0,0.8911736761645627,52.19324940579652,45.74462490758823,12.791178395302893,0.009225597488192034
6,6,710,2,-13,True,,,31.58063,35.0,1984.2000002972782,3.4193700000000007,False,1,0,17,6,0,0,30.0,0.8911736761645627,52.19324940579652,45.74462490758823,-0.34150569856096524,0.00017773406939992412
6,5,329,5,-13,True,,,87.0672,100.0,1945.0349998660386,12.9328,False,1,0,18,6,0,0,30.0,0.8911736761645627,52.19324940579652,45.74462490758823,13.894245800436067,0.024261087683527492
6,2,463,4,-19,True,,,62.42097,50.0,1175.2650002017617,-12.420969999999997,False,1,0,19,6,0,0,30.0,0.8911736761645627,52.19324940579652,45.74462490758823,-13.55710282912365,0.009202963461629316
6,7,358,5,-13,True,,,80.9736,99.0,1590.1899999007583,18.026399999999995,False,1,0,20,6,0,0,30.0,0.8911736761645627,52.19324940579652,45.74462490758823,18.469234888607133,0.03268954710899009
6,6,463,4,-13,True,,,62.42097,73.0,2190.7849996350706,10.579030000000003,False,1,0,21,6,0,0,30.0,0.8911736761645627,52.19324940579652,45.74462490758823,9.44289717087635,0.003873763439083663
6,4,302,5,-13,True,,,93.24415,99.0,2857.2049997746944,5.755849999999995,False,1,0,22,6,0,0,30.0,0.8911736761645627,52.19324940579652,45.74462490758823,7.242999009897545,0.00921849551186083
6,7,652,2,-13,True,,,37.72798,74.0,4041.1700000986457,36.27202,False,1,0,23,6,0,0,30.0,0.8911736761645627,52.19324940579652,45.74462490758823,33.03432715088492,0.047892185440665036
6,3,1000,1,-19,True,,,6.87518,23.0,1689.7900002077222,16.12482,False,1,0,24,6,0,0,30.0,0.8911736761645627,52.19324940579652,45.74462490758823,10.261328384379283,0.009631367321647391
6,4,652,2,-16,True,,,37.72798,50.0,1432.0450001396239,12.272019999999998,False,1,0,25,6,0,0,30.0,0.8911736761645627,52.19324940579652,45.74462490758823,9.03432715088492,0.002896950034329003
6,3,329,5,-16,True,,,87.0672,95.0,2064.3250001594424,7.9328,False,1,0,26,6,0,0,30.0,0.8911736761645627,52.19324940579652,45.74462490758823,8.894245800436067,0.010272159636337675
6,4,599,3,-16,True,,,43.84378,37.0,1597.5000001490116,-6.843780000000002,False,1,0,27,6,0,0,30.0,0.8911736761645627,52.19324940579652,45.74462490758823,-9.56097062550375,0.004567353572008601
6,3,652,2,-16,True,,,37.72798,25.0,1786.1750000156462,-12.727980000000002,False,1,0,28,6,0,0,30.0,0.8911736761645627,52.19324940579652,45.74462490758823,-15.96567284911508,0.013940997388385914
6,4,918,1,-19,True,,,13.04687,0.0,1742.9849999025464,-13.04687,False,1,0,29,6,0,0,30.0,0.8911736761645627,52.19324940579652,45.74462490758823,-18.38511095888853,0.04934416952067866
6,2,504,3,-16,True,,,56.30039,67.0,1905.0600002519786,10.69961,False,1,0,30,6,0,0,30.0,0.8911736761645627,52.19324940579652,45.74462490758823,9.04256716350067,0.002920461697289089
6,2,918,1,-19,True,"[70, 70, 70, 70, 70, 70, 70, 70, 70]","[107, 603, 1104, 1563, 1979, 2448, 2923, 3392, 3824]",13.04687,0.0,2664.014999754727,-13.04687,True,2,1,31,6,0,0,30.0,0.8911736761645627,52.19324940579652,45.74462490758823,-18.38511095888853,0.04934416952067866
6,7,425,4,-16,True,"[70, 70, 70]","[325, 773, 1387]",68.59844,63.0,4782.354999799281,-5.5984399999999965,True,2,1,32,6,0,0,30.0,0.8911736761645627,52.19324940579652,45.74462490758823,-6.208821604697107,0.0023776825292702924
6,5,843,1,-16,True,,,19.19495,32.0,2534.53000029549,12.805050000000001,False,1,1,33,6,0,0,30.0,0.8911736761645627,52.19324940579652,45.74462490758823,7.9900603175764076,0.0035620895796852187
6,4,504,3,-19,True,,,56.30039,50.0,543.864999897778,-6.30039,False,1,1,34,6,0,0,30.0,0.8911736761645627,52.19324940579652,45.74462490758823,-7.957432836499329,0.002992390876701318
6,3,918,1,-16,True,,,13.04687,24.0,2309.034999925643,10.95313,False,1,1,35,6,0,0,30.0,0.8911736761645627,52.19324940579652,45.74462490758823,5.614889041111471,0.0015316611710073857
6,2,599,3,-19,True,,,43.84378,39.0,3035.1549996994436,-4.843780000000002,False,1,1,36,6,0,0,30.0,0.8911736761645627,52.19324940579652,45.74462490758823,-7.560970625503749,0.0030018969861294966
6,6,652,2,-16,True,,,37.72798,50.0,2523.64999987185,12.272019999999998,False,1,1,37,6,0,0,30.0,0.8911736761645627,52.19324940579652,45.74462490758823,9.03432715088492,0.002896950034329003
6,7,504,3,-16,True,"[70, 70, 70, 70]","[432, 981, 1541, 2149]",56.30039,50.0,1096.6699998825788,-6.30039,True,2,1,38,6,0,0,30.0,0.8911736761645627,52.19324940579652,45.74462490758823,-7.957432836499329,0.002992390876701318
6,5,774,2,-16,True,"[70, 70, 70, 70, 70, 70]","[469, 1040, 1616, 2123, 2651, 3205]",25.3549,30.0,2464.6199997514486,4.645099999999999,True,2,1,39,6,0,0,30.0,0.8911736761645627,52.19324940579652,45.74462490758823,0.3543653094412491,0.00011656911605040041
6,4,390,4,-13,True,"[70, 70, 70]","[432, 1024, 1488]",74.79787,100.0,2293.324999976903,25.202129999999997,True,2,1,40,6,0,0,30.0,0.8911736761645627,52.19324940579652,45.74462490758823,25.11936103076428,0.04642622834577346
6,5,358,5,-19,True,"[70, 70, 70]","[80, 645, 1275]",80.9736,100.0,1919.8850002139807,19.026399999999995,True,2,1,41,6,0,0,30.0,0.8911736761645627,52.19324940579652,45.74462490758823,19.469234888607133,0.03628156649000041
