experiment,subject,pitch,ioi,tempo,tempo_range,loudness,tap_condition,key_press,tap_times,true_score,response,rt,error,tapped,tap_type,block,trial,test_correct,test_incorrect,test_skipped,extreme_responses,pearsonr,intercept,slope,residual,illusory_tempo,cooks
IT1,1,5,710,84.50704225352112,2,-16,True,,,31.580629700998873,24.0,3452.564999985043,-7.580629700998873,False,1,0,1,6,0,0,29.0,0.9229684649662334,51.159875190020855,33.6426000263365,-14.766365035895312,-43.89186633713128,0.03326126820017107
IT1,1,6,1000,60.0,1,-16,True,,,6.875176187496734,19.0,9667.070000024978,12.124823812503266,False,1,0,2,6,0,0,29.0,0.9229684649662334,51.159875190020855,33.6426000263365,-3.143251215415269,-9.34306864794823,0.004070705681068096
IT1,1,3,463,129.58963282937364,4,-16,True,,,62.42097125758927,50.0,4216.755000001285,-12.420971257589272,False,1,0,3,6,0,0,29.0,0.9229684649662334,51.159875190020855,33.6426000263365,-9.517350549174807,-28.28958089364176,0.01239289056362607
IT1,1,7,329,182.370820668693,5,-19,True,,,87.06720173383901,74.0,3767.7350000012666,-13.067201733839013,False,1,0,4,6,0,0,29.0,0.9229684649662334,51.159875190020855,33.6426000263365,-2.100616030562321,-6.243917024599441,0.002855251482198473
IT1,1,4,1000,60.0,1,-13,True,,,6.875176187496734,24.0,3347.1649999846704,17.124823812503266,False,1,0,5,6,0,0,29.0,0.9229684649662334,51.159875190020855,33.6426000263365,1.856748784584731,5.519040689872985,0.0010483675405955437
IT1,1,5,329,182.370820668693,5,-13,True,,,87.06720173383901,79.0,4055.6499999947846,-8.067201733839013,False,1,0,6,6,0,0,29.0,0.9229684649662334,51.159875190020855,33.6426000263365,2.899383969437679,8.618192313221773,0.0010424028758808472
IT1,1,7,652,92.02453987730061,2,-13,True,,,37.727982709047225,50.0,763.1050000200048,12.272017290952775,False,1,0,7,6,0,0,29.0,0.9229684649662334,51.159875190020855,33.6426000263365,7.097376194695343,21.096396203442332,0.005111360206651738
IT1,1,4,358,167.5977653631285,5,-13,True,,,80.97360155738828,70.0,4475.894999981392,-10.973601557388278,False,1,0,8,6,0,0,29.0,0.9229684649662334,51.159875190020855,33.6426000263365,-2.000524961427402,-5.946404141954924,0.0020255708686632385
IT1,1,5,918,65.359477124183,1,-16,True,,,13.046873249910696,28.0,2653.280000027735,14.953126750089304,False,1,0,9,6,0,0,29.0,0.9229684649662334,51.159875190020855,33.6426000263365,1.7041100694945541,5.065334035302035,0.0006319964297133153
IT1,1,6,302,198.67549668874173,5,-13,True,,,93.24415345434716,72.0,2944.344999967143,-21.244153454347156,False,1,0,10,6,0,0,29.0,0.9229684649662334,51.159875190020855,33.6426000263365,-8.256790352863248,-24.542664200744202,0.032244202431341386
IT1,1,2,390,153.84615384615384,4,-16,True,,,74.79787473312055,61.0,2813.6499999673106,-13.797874733120551,False,1,0,11,6,0,0,29.0,0.9229684649662334,51.159875190020855,33.6426000263365,-6.845174813012278,-20.346747301497675,0.010906632501902026
IT1,1,4,774,77.51937984496124,2,-19,True,,,25.354902613380577,25.0,1978.0749999918044,-0.3549026133805775,False,1,0,12,6,0,0,29.0,0.9229684649662334,51.159875190020855,33.6426000263365,-9.57737211025789,-28.467990294330452,0.018030550984496935
IT1,1,2,358,167.5977653631285,5,-16,True,,,80.97360155738828,67.0,2741.6599999996834,-13.973601557388278,False,1,0,13,6,0,0,29.0,0.9229684649662334,51.159875190020855,33.6426000263365,-5.000524961427402,-14.863669744647654,0.008232714327699262
IT1,1,6,463,129.58963282937364,4,-19,True,,,62.42097125758927,50.0,1036.0299999592826,-12.420971257589272,False,1,0,14,6,0,0,29.0,0.9229684649662334,51.159875190020855,33.6426000263365,-9.517350549174807,-28.28958089364176,0.01239289056362607
IT1,1,2,550,109.0909090909091,3,-13,True,,,50.0,50.0,2058.1149999634363,0.0,False,1,0,15,6,0,0,29.0,0.9229684649662334,51.159875190020855,33.6426000263365,-1.1598751900208555,-3.4476383784632225,0.0003070204273605608
IT1,1,5,425,141.1764705882353,4,-19,True,,,68.5984388693479,62.0,3365.029999986291,-6.598438869347902,False,1,0,16,6,0,0,29.0,0.9229684649662334,51.159875190020855,33.6426000263365,-1.6738719899356838,-4.975453706388102,0.0008983056927367337
IT1,1,3,599,100.1669449081803,3,-16,True,,,43.84378078116181,37.0,2162.1950000408106,-6.843780781161811,False,1,0,17,6,0,0,29.0,0.9229684649662334,51.159875190020855,33.6426000263365,-10.017650772944478,-29.776684219122007,0.011367042527975121
IT1,1,7,1000,60.0,1,-19,True,,,6.875176187496734,23.0,2277.044999995269,16.124823812503266,False,1,0,18,6,0,0,29.0,0.9229684649662334,51.159875190020855,33.6426000263365,0.856748784584731,2.5466188223087416,0.00017272233651603985
IT1,1,4,463,129.58963282937364,4,-16,True,,,62.42097125758927,62.0,2148.6300000105985,-0.42097125758927234,False,1,0,19,6,0,0,29.0,0.9229684649662334,51.159875190020855,33.6426000263365,2.4826494508251926,7.379481517129162,0.00034950871370587245
IT1,1,6,710,84.50704225352112,2,-13,True,,,31.580629700998873,28.0,2851.635000028182,-3.5806297009988732,False,1,0,20,6,0,0,29.0,0.9229684649662334,51.159875190020855,33.6426000263365,-10.766365035895312,-32.00217886687432,0.01805832112419847
IT1,1,7,425,141.1764705882353,4,-19,True,,,68.5984388693479,63.0,1792.284999974072,-5.598438869347902,False,1,0,21,6,0,0,29.0,0.9229684649662334,51.159875190020855,33.6426000263365,-0.6738719899356838,-2.003031838823858,0.00032269445150005235
IT1,1,6,550,109.0909090909091,3,-19,True,,,50.0,50.0,455.66500001586974,0.0,False,1,0,22,6,0,0,29.0,0.9229684649662334,51.159875190020855,33.6426000263365,-1.1598751900208555,-3.4476383784632225,0.0003070204273605608
IT1,1,3,774,77.51937984496124,2,-19,True,,,25.354902613380577,21.0,2256.6149999620393,-4.3549026133805775,False,1,0,23,6,0,0,29.0,0.9229684649662334,51.159875190020855,33.6426000263365,-13.57737211025789,-40.35767776458742,0.03545147734123804
IT1,1,2,1000,60.0,1,-19,True,,,6.875176187496734,20.0,3593.429999949876,13.124823812503266,False,1,0,24,6,0,0,29.0,0.9229684649662334,51.159875190020855,33.6426000263365,-2.143251215415269,-6.3706467803839875,0.0019861252207995705
IT1,1,5,550,109.0909090909091,3,-19,True,,,50.0,50.0,559.8400000017136,0.0,False,1,0,25,6,0,0,29.0,0.9229684649662334,51.159875190020855,33.6426000263365,-1.1598751900208555,-3.4476383784632225,0.0003070204273605608
IT1,1,3,843,71.17437722419929,1,-13,True,,,19.194949373496982,22.0,2395.235000003595,2.805050626503018,False,1,0,26,6,0,0,29.0,0.9229684649662334,51.159875190020855,33.6426000263365,-8.432635249651103,-25.065349417256,0.017708103701391652
IT1,1,4,504,119.04761904761905,3,-13,True,,,56.30039424560527,50.0,561.8150000227615,-6.300394245605268,False,1,0,27,6,0,0,29.0,0.9229684649662334,51.159875190020855,33.6426000263365,-5.39910806228346,-16.048426869673765,0.003769441319485527
IT1,1,3,329,182.370820668693,5,-19,True,,,87.06720173383901,74.0,2057.2599999723025,-13.067201733839013,False,1,0,28,6,0,0,29.0,0.9229684649662334,51.159875190020855,33.6426000263365,-2.100616030562321,-6.243917024599441,0.002855251482198473
IT1,1,7,599,100.1669449081803,3,-16,True,,,43.84378078116181,50.0,627.4099999573082,6.156219218838189,False,1,0,29,6,0,0,29.0,0.9229684649662334,51.159875190020855,33.6426000263365,2.982349227055522,8.864800059213152,0.0005949311876177532
IT1,1,2,774,77.51937984496124,2,-19,True,,,25.354902613380577,27.0,2701.3799999840558,1.6450973866194225,False,1,0,30,6,0,0,29.0,0.9229684649662334,51.159875190020855,33.6426000263365,-7.57737211025789,-22.52314655920197,0.0115077147781737
IT1,1,2,425,141.1764705882353,4,-13,True,"[74, 74, 74, 74, 74]","[368, 736, 1056, 1440, 1883]",68.5984388693479,70.0,2819.4950000033714,1.401561130652098,True,2,1,31,6,0,0,29.0,0.9229684649662334,51.159875190020855,33.6426000263365,6.326128010064316,18.80392123412584,0.004368238706424079
IT1,1,5,504,119.04761904761905,3,-13,True,"[74, 74, 74, 74]","[293, 640, 1163, 1685]",56.30039424560527,50.0,1083.1449999823235,-6.300394245605268,True,2,1,32,6,0,0,29.0,0.9229684649662334,51.159875190020855,33.6426000263365,-5.39910806228346,-16.048426869673765,0.003769441319485527
IT1,1,3,1000,60.0,1,-19,True,"[74, 74, 74]","[576, 2133, 3173]",6.875176187496734,22.0,2109.295000031125,15.124823812503266,True,2,1,33,6,0,0,29.0,0.9229684649662334,51.159875190020855,33.6426000263365,-0.14325121541526897,-0.42580304525550144,3.7133548523542944e-05
IT1,1,7,710,84.50704225352112,2,-19,True,"[74, 74, 74, 74]","[347, 949, 1643, 2325]",31.580629700998873,50.0,1188.1050000083633,18.419370299001127,True,2,1,34,6,0,0,29.0,0.9229684649662334,51.159875190020855,33.6426000263365,11.233634964104688,33.391102219539036,0.016794558017079343
IT1,1,6,918,65.359477124183,1,-19,True,"[74, 74, 74, 74, 74]","[21, 731, 2016, 2859, 3787]",13.046873249910696,23.0,2934.064999979455,9.953126750089304,True,2,1,35,6,0,0,29.0,0.9229684649662334,51.159875190020855,33.6426000263365,-3.295889930505446,-9.796775302519181,0.0036745980887578217
IT1,1,3,652,92.02453987730061,2,-16,True,"[74, 74, 74, 74, 74]","[352, 1013, 1531, 2149, 2805]",37.727982709047225,50.0,1204.729999997653,12.272017290952775,True,2,1,36,6,0,0,29.0,0.9229684649662334,51.159875190020855,33.6426000263365,7.097376194695343,21.096396203442332,0.005111360206651738
IT1,1,6,390,153.84615384615384,4,-16,True,"[74, 74, 74, 74, 74, 74]","[341, 747, 917, 1077, 1280, 1483]",74.79787473312055,85.0,3616.120000020601,10.202125266879449,True,2,1,37,6,0,0,29.0,0.9229684649662334,51.159875190020855,33.6426000263365,17.154825186987722,50.99137752004415,0.048273242160880504
IT1,1,7,843,71.17437722419929,1,-13,True,"[74, 74, 74, 74]","[171, 677, 1845, 2731]",19.194949373496982,26.0,2495.5099999788217,6.805050626503018,True,2,1,38,6,0,0,29.0,0.9229684649662334,51.159875190020855,33.6426000263365,-4.432635249651103,-13.175661946999027,0.005204013322315489
IT1,1,5,463,129.58963282937364,4,-13,True,"[74, 74, 74, 74, 74]","[336, 725, 1136, 1568, 2043]",62.42097125758927,74.0,3059.659999969881,11.579028742410728,True,2,1,39,6,0,0,29.0,0.9229684649662334,51.159875190020855,33.6426000263365,14.482649450825193,43.04854392790008,0.02211575405571588
IT1,1,6,652,92.02453987730061,2,-16,True,"[74, 74, 74, 74, 74]","[368, 720, 1541, 2091, 2736]",37.727982709047225,50.0,1495.4849999630824,12.272017290952775,True,2,1,40,6,0,0,29.0,0.9229684649662334,51.159875190020855,33.6426000263365,7.097376194695343,21.096396203442332,0.005111360206651738
IT1,1,7,463,129.58963282937364,4,-16,True,"[74, 74, 74, 74, 74]","[341, 736, 1077, 1509, 1979]",62.42097125758927,67.0,2821.5450000134297,4.579028742410728,True,2,1,41,6,0,0,29.0,0.9229684649662334,51.159875190020855,33.6426000263365,7.482649450825193,22.241590854950378,0.005309968746079636
IT1,1,6,358,167.5977653631285,5,-19,True,"[74, 74, 74, 74, 74]","[213, 715, 907, 1205, 1515]",80.97360155738828,81.0,3263.570000010077,0.026398442611721862,True,2,1,42,6,0,0,29.0,0.9229684649662334,51.159875190020855,33.6426000263365,8.999475038572598,26.750236401251748,0.01504617665386368
IT1,1,4,652,92.02453987730061,2,-13,True,"[74, 74, 74, 74, 74]","[352, 997, 1536, 2139, 2789]",37.727982709047225,29.0,3978.899999987334,-8.727982709047225,True,2,1,43,6,0,0,29.0,0.9229684649662334,51.159875190020855,33.6426000263365,-13.902623805304657,-41.32446301540677,0.024335507174012568
IT1,1,7,358,167.5977653631285,5,-16,True,"[74, 74, 74, 74, 74, 74]","[357, 715, 901, 1120, 1365, 1589]",80.97360155738828,83.0,3257.8799999901094,2.026398442611722,True,2,1,44,6,0,0,29.0,0.9229684649662334,51.159875190020855,33.6426000263365,10.999475038572598,32.695080136380234,0.023454360996908643
IT1,1,4,843,71.17437722419929,1,-16,True,"[74, 74, 74, 74, 74, 74]","[363, 704, 1109, 1893, 2715, 3477]",19.194949373496982,23.0,2401.2999999686144,3.805050626503018,True,2,1,45,6,0,0,29.0,0.9229684649662334,51.159875190020855,33.6426000263365,-7.432635249651103,-22.092927549691755,0.01388592649768196
IT1,1,2,302,198.67549668874173,5,-13,True,"[74, 74, 74, 74, 74]","[373, 667, 853, 1056, 1312]",93.24415345434716,78.0,3215.550000022631,-15.244153454347156,True,2,1,46,6,0,0,29.0,0.9229684649662334,51.159875190020855,33.6426000263365,-2.2567903528632485,-6.708132995358744,0.004119957481838435
IT1,1,3,504,119.04761904761905,3,-13,True,"[74, 74, 74, 74, 74]","[352, 693, 1184, 1701, 2197]",56.30039424560527,70.0,3130.6850000401028,13.699605754394732,True,2,1,47,6,0,0,29.0,0.9229684649662334,51.159875190020855,33.6426000263365,14.60089193771654,43.4000104816111,0.01964670874244131
IT1,1,4,302,198.67549668874173,5,-19,True,"[74, 74, 74, 74, 74]","[363, 699, 949, 1173, 1392]",93.24415345434716,100.0,3513.1099999998696,6.755846545652844,True,2,1,48,6,0,0,29.0,0.9229684649662334,51.159875190020855,33.6426000263365,19.74320964713675,58.68514809105461,0.1287894121675171
IT1,1,7,504,119.04761904761905,3,-19,True,"[74, 74, 74, 74, 74]","[480, 741, 1109, 1600, 2075]",56.30039424560527,50.0,552.350000012666,-6.300394245605268,True,2,1,49,6,0,0,29.0,0.9229684649662334,51.159875190020855,33.6426000263365,-5.39910806228346,-16.048426869673765,0.003769441319485527
IT1,1,5,652,92.02453987730061,2,-13,True,"[74, 74, 74, 74, 74]","[347, 672, 1552, 2149, 2784]",37.727982709047225,31.0,3972.829999984242,-6.727982709047225,True,2,1,50,6,0,0,29.0,0.9229684649662334,51.159875190020855,33.6426000263365,-11.902623805304657,-35.379619280278284,0.018045219701803724
IT1,1,3,302,198.67549668874173,5,-16,True,"[74, 74, 74, 74, 74]","[368, 688, 880, 1051, 1237]",93.24415345434716,81.0,3729.9300000304356,-12.244153454347156,True,2,1,51,6,0,0,29.0,0.9229684649662334,51.159875190020855,33.6426000263365,0.7432096471367515,2.2091326073339848,4.2210861817665427e-05
IT1,1,4,599,100.1669449081803,3,-19,True,"[74, 74, 74, 74, 74]","[379, 629, 1339, 1936, 2432]",43.84378078116181,50.0,857.2549999807961,6.156219218838189,True,2,1,52,6,0,0,29.0,0.9229684649662334,51.159875190020855,33.6426000263365,2.982349227055522,8.864800059213152,0.0005949311876177532
IT1,1,3,390,153.84615384615384,4,-13,True,"[74, 74, 74, 74, 74]","[341, 704, 965, 1349, 1701]",74.79787473312055,70.0,3032.1149999508634,-4.797874733120551,True,2,1,53,6,0,0,29.0,0.9229684649662334,51.159875190020855,33.6426000263365,2.154825186987722,6.4050495065805135,0.0002930989132315512
IT1,1,2,918,65.359477124183,1,-13,True,"[74, 74, 74, 74, 74, 74]","[384, 725, 1360, 2101, 2949, 3835]",13.046873249910696,21.0,3785.845000005793,7.953126750089304,True,2,1,54,6,0,0,29.0,0.9229684649662334,51.159875190020855,33.6426000263365,-5.295889930505446,-15.741619037647666,0.009010122342275544
IT1,1,4,425,141.1764705882353,4,-19,True,"[74, 74, 74, 74, 74]","[405, 784, 1024, 1339, 1760]",68.5984388693479,77.0,3460.7649999670684,8.401561130652098,True,2,1,55,6,0,0,29.0,0.9229684649662334,51.159875190020855,33.6426000263365,13.326128010064316,39.61087430707554,0.022544723112614497
IT1,1,2,599,100.1669449081803,3,-19,True,"[74, 74, 74, 74, 74]","[363, 949, 1429, 2000, 2576]",43.84378078116181,50.0,925.7249999791384,6.156219218838189,True,2,1,56,6,0,0,29.0,0.9229684649662334,51.159875190020855,33.6426000263365,2.982349227055522,8.864800059213152,0.0005949311876177532
IT1,1,5,843,71.17437722419929,1,-13,True,"[74, 74, 74, 74, 74, 74]","[352, 688, 1157, 1883, 2741, 3531]",19.194949373496982,33.0,4106.704999983776,13.805050626503018,True,2,1,57,6,0,0,29.0,0.9229684649662334,51.159875190020855,33.6426000263365,2.567364750348897,7.631291125950676,0.0011898234550756699
IT1,1,2,710,84.50704225352112,2,-13,True,"[74, 74, 74, 74]","[384, 773, 1669, 2357]",31.580629700998873,50.0,1243.6700000544079,18.419370299001127,True,2,1,58,6,0,0,29.0,0.9229684649662334,51.159875190020855,33.6426000263365,11.233634964104688,33.391102219539036,0.016794558017079343
IT1,1,5,302,198.67549668874173,5,-19,True,"[74, 74, 74, 74, 74]","[352, 736, 928, 1136, 1376]",93.24415345434716,85.0,2791.650000028312,-8.244153454347156,True,2,1,59,6,0,0,29.0,0.9229684649662334,51.159875190020855,33.6426000263365,4.7432096471367515,14.098820077590958,0.004959382921510708
IT1,1,6,504,119.04761904761905,3,-16,True,"[74, 74, 74, 74]","[549, 1168, 1648, 2107]",56.30039424560527,50.0,599.4350000401028,-6.300394245605268,True,2,1,60,6,0,0,29.0,0.9229684649662334,51.159875190020855,33.6426000263365,-5.39910806228346,-16.048426869673765,0.003769441319485527
IT1,1,5,390,153.84615384615384,4,-16,True,"[74, 74, 74, 74, 74]","[341, 741, 992, 1333, 1701]",74.79787473312055,64.0,2563.854999956675,-10.797874733120551,True,2,2,61,6,0,0,29.0,0.9229684649662334,51.159875190020855,33.6426000263365,-3.845174813012278,-11.429481698804944,0.004085319677573546
IT1,1,4,918,65.359477124183,1,-19,True,"[74, 74, 74, 74, 74, 74]","[357, 683, 1253, 1904, 2837, 3621]",13.046873249910696,37.0,3981.339999998454,23.953126750089304,True,2,2,62,6,0,0,29.0,0.9229684649662334,51.159875190020855,33.6426000263365,10.704110069494554,31.81713084338022,0.032221665752532484
IT1,1,6,329,182.370820668693,5,-16,True,"[74, 74, 74, 74, 74]","[357, 693, 901, 1125, 1403]",87.06720173383901,73.0,4858.570000040345,-14.067201733839013,True,2,2,63,6,0,0,29.0,0.9229684649662334,51.159875190020855,33.6426000263365,-3.100616030562321,-9.216338892163686,0.004981355267217251
IT1,1,2,843,71.17437722419929,1,-16,True,"[74, 74, 74, 74, 74, 74]","[357, 736, 1147, 1680, 2629, 3387]",19.194949373496982,50.0,1536.7649999679998,30.805050626503018,True,2,2,64,6,0,0,29.0,0.9229684649662334,51.159875190020855,33.6426000263365,19.567364750348897,58.16246287454281,0.08611810345056511
IT1,1,7,302,198.67549668874173,5,-13,True,"[74, 74, 74, 74]","[635, 864, 1115, 1392]",93.24415345434716,73.0,2283.3899999968708,-20.244153454347156,True,2,2,65,6,0,0,29.0,0.9229684649662334,51.159875190020855,33.6426000263365,-7.2567903528632485,-21.57024233317996,0.025707869781474102
IT1,1,5,599,100.1669449081803,3,-16,True,"[74, 74, 74, 74, 74]","[368, 800, 1376, 1925, 2555]",43.84378078116181,50.0,545.990000013262,6.156219218838189,True,2,2,66,6,0,0,29.0,0.9229684649662334,51.159875190020855,33.6426000263365,2.982349227055522,8.864800059213152,0.0005949311876177532
IT1,1,4,710,84.50704225352112,2,-16,True,"[74, 74, 74, 74, 74]","[341, 885, 1611, 2272, 2987]",31.580629700998873,50.0,966.199999966193,18.419370299001127,True,2,2,67,6,0,0,29.0,0.9229684649662334,51.159875190020855,33.6426000263365,11.233634964104688,33.391102219539036,0.016794558017079343
IT1,1,2,463,129.58963282937364,4,-19,True,"[74, 74, 74, 74, 74]","[293, 741, 1099, 1547, 1947]",62.42097125758927,62.0,1745.9749999688938,-0.42097125758927234,True,2,2,68,6,0,0,29.0,0.9229684649662334,51.159875190020855,33.6426000263365,2.4826494508251926,7.379481517129162,0.00034950871370587245
IT1,1,6,843,71.17437722419929,1,-13,True,"[74, 74, 74, 74, 74]","[363, 725, 1957, 2720, 3456]",19.194949373496982,28.0,2033.5750000085682,8.805050626503018,True,2,2,69,6,0,0,29.0,0.9229684649662334,51.159875190020855,33.6426000263365,-2.432635249651103,-7.230818211870539,0.0017365865685400256
IT1,1,3,425,141.1764705882353,4,-19,True,"[74, 74, 74, 74, 74]","[373, 757, 1056, 1435, 1835]",68.5984388693479,72.0,2506.969999987632,3.401561130652098,True,2,2,70,6,0,0,29.0,0.9229684649662334,51.159875190020855,33.6426000263365,8.326128010064316,24.74876496925433,0.008119587296839058
IT1,1,7,918,65.359477124183,1,-16,True,"[74, 74, 74, 74, 74, 74]","[352, 715, 1205, 1888, 2805, 3520]",13.046873249910696,29.0,2793.665000004694,15.953126750089304,True,2,2,71,6,0,0,29.0,0.9229684649662334,51.159875190020855,33.6426000263365,2.704110069494554,8.037755902866278,0.0017885404935758086
IT1,1,6,425,141.1764705882353,4,-13,True,"[74, 74, 74, 74]","[363, 752, 1083, 1493]",68.5984388693479,64.0,16856.465000018943,-4.598438869347902,True,2,2,72,6,0,0,29.0,0.9229684649662334,51.159875190020855,33.6426000263365,0.32612801006431624,0.969390028740385,3.54697439626852e-05
IT1,1,5,358,167.5977653631285,5,-16,True,"[74, 74, 74, 74, 74]","[16, 613, 923, 1264, 1557]",80.97360155738828,72.0,52948.94500001101,-8.973601557388278,True,2,2,73,6,0,0,29.0,0.9229684649662334,51.159875190020855,33.6426000263365,-0.0005249614274021042,-0.0015604068264377534,0.0002108604112322437
IT1,1,4,390,153.84615384615384,4,-13,True,"[74, 74, 74, 74, 74]","[373, 688, 1003, 1349, 1717]",74.79787473312055,69.0,3739.515000022948,-5.797874733120551,True,2,2,74,6,0,0,29.0,0.9229684649662334,51.159875190020855,33.6426000263365,1.154825186987722,3.432627639016271,1.3061180963090674e-05
IT1,1,2,329,182.370820668693,5,-19,True,"[74, 74, 74, 74, 74]","[368, 715, 955, 1205, 1493]",87.06720173383901,72.0,1848.5750000108965,-15.067201733839013,True,2,2,75,6,0,0,29.0,0.9229684649662334,51.159875190020855,33.6426000263365,-4.100616030562321,-12.188760759727927,0.00769530374015445
IT1,1,3,710,84.50704225352112,2,-13,True,"[74, 74, 74, 74]","[571, 1573, 2267, 2917]",31.580629700998873,39.0,3704.5949999592267,7.419370299001127,True,2,2,76,6,0,0,29.0,0.9229684649662334,51.159875190020855,33.6426000263365,0.23363496410468798,0.6944616763323616,5.729879907551658e-06
IT1,1,2,504,119.04761904761905,3,-16,True,"[74, 74, 74, 74, 74]","[363, 779, 1264, 1728, 2192]",56.30039424560527,50.0,762.4950000317767,-6.300394245605268,True,2,2,77,6,0,0,29.0,0.9229684649662334,51.159875190020855,33.6426000263365,-5.39910806228346,-16.048426869673765,0.003769441319485527
IT1,1,7,774,77.51937984496124,2,-16,True,"[74, 74, 74, 74, 74]","[379, 752, 1776, 2485, 3221]",25.354902613380577,35.0,1571.2350000394508,9.645097386619423,True,2,2,78,6,0,0,29.0,0.9229684649662334,51.159875190020855,33.6426000263365,0.42262788974210963,1.2562283813119766,5.497665295392793e-07
IT1,1,3,550,109.0909090909091,3,-19,True,"[74, 74, 74, 74, 74]","[368, 736, 1328, 1845, 2389]",50.0,50.0,567.5099999643862,0.0,True,2,2,79,6,0,0,29.0,0.9229684649662334,51.159875190020855,33.6426000263365,-1.1598751900208555,-3.4476383784632225,0.0003070204273605608
IT1,1,5,1000,60.0,1,-19,True,"[74, 74, 74, 74, 74]","[384, 763, 1349, 2059, 3099]",6.875176187496734,25.0,2036.9100000243634,18.124823812503266,True,2,2,80,6,0,0,29.0,0.9229684649662334,51.159875190020855,33.6426000263365,2.856748784584731,8.491462557437227,0.002664069160762054
IT1,1,6,774,77.51937984496124,2,-19,True,"[74, 74, 74, 74]","[395, 768, 1616, 2459]",25.354902613380577,50.0,447.87999999243766,24.645097386619423,True,2,2,81,6,0,0,29.0,0.9229684649662334,51.159875190020855,33.6426000263365,15.42262788974211,45.84255639477563,0.04131889081605713
IT1,1,7,390,153.84615384615384,4,-13,True,"[74, 74, 74, 74]","[667, 1003, 1349, 1664]",74.79787473312055,65.0,2250.5499999970198,-9.797874733120551,True,2,2,82,6,0,0,29.0,0.9229684649662334,51.159875190020855,33.6426000263365,-2.845174813012278,-8.457059831240702,0.002541208357191087
IT1,1,4,329,182.370820668693,5,-16,True,"[74, 74, 74, 74, 74]","[53, 624, 896, 1179, 1472]",87.06720173383901,78.0,2479.425000026822,-9.067201733839013,True,2,2,83,6,0,0,29.0,0.9229684649662334,51.159875190020855,33.6426000263365,1.8993839694376788,5.64577044565753,0.00022928322130753607
IT1,1,7,550,109.0909090909091,3,-13,True,"[74, 74, 74, 74, 74]","[96, 571, 1221, 1813, 2336]",50.0,50.0,550.9999999776483,0.0,True,2,2,84,6,0,0,29.0,0.9229684649662334,51.159875190020855,33.6426000263365,-1.1598751900208555,-3.4476383784632225,0.0003070204273605608
IT1,1,3,918,65.359477124183,1,-16,True,"[74, 74, 74, 74, 74]","[43, 635, 1984, 2816, 3781]",13.046873249910696,26.0,2292.9150000563823,12.953126750089304,True,2,2,85,6,0,0,29.0,0.9229684649662334,51.159875190020855,33.6426000263365,-0.2958899305054459,-0.8795096998264516,8.397269765972353e-05
IT1,1,6,599,100.1669449081803,3,-13,True,"[74, 74, 74, 74, 74]","[336, 811, 1387, 1899, 2555]",43.84378078116181,50.0,663.4249999769963,6.156219218838189,True,2,2,86,6,0,0,29.0,0.9229684649662334,51.159875190020855,33.6426000263365,2.982349227055522,8.864800059213152,0.0005949311876177532
IT1,1,5,774,77.51937984496124,2,-19,True,"[74, 74, 74, 74, 74]","[16, 613, 1147, 1749, 2443]",25.354902613380577,50.0,8067.049999954179,24.645097386619423,True,2,2,87,6,0,0,29.0,0.9229684649662334,51.159875190020855,33.6426000263365,15.42262788974211,45.84255639477563,0.04131889081605713
IT1,1,3,358,167.5977653631285,5,-13,True,"[74, 74, 74, 74, 74]","[64, 592, 912, 1237, 1557]",80.97360155738828,71.0,2041.7349999770522,-9.973601557388278,True,2,2,88,6,0,0,29.0,0.9229684649662334,51.159875190020855,33.6426000263365,-1.000524961427402,-2.9739822743906807,0.0008858771217551053
IT1,1,2,652,92.02453987730061,2,-16,True,"[74, 74, 74, 74, 74]","[43, 603, 1381, 2075, 2699]",37.727982709047225,50.0,1539.4450000021607,12.272017290952775,True,2,2,89,6,0,0,29.0,0.9229684649662334,51.159875190020855,33.6426000263365,7.097376194695343,21.096396203442332,0.005111360206651738
IT1,1,4,550,109.0909090909091,3,-16,True,"[74, 74, 74, 74]","[608, 1200, 1728, 2165]",50.0,50.0,494.38999994890764,0.0,True,2,2,90,6,0,0,29.0,0.9229684649662334,51.159875190020855,33.6426000263365,-1.1598751900208555,-3.4476383784632225,0.0003070204273605608
IT1,2,3,550,109.0909090909091,3,-16,True,"[74, 74, 74, 74]","[772, 1329, 1852, 2397]",50.0,50.0,1337.5749999831896,0.0,True,2,0,1,6,0,0,31.0,0.9028819725263835,48.04256213179057,53.36715283298322,1.957437868209432,3.667870149144719,0.0001360591049884587
IT1,2,4,652,92.02453987730061,2,-16,True,"[74, 74, 74, 74]","[401, 755, 1503, 2194]",37.727982709047225,24.0,5710.5000000156,-13.727982709047225,True,2,0,2,6,0,0,31.0,0.9028819725263835,48.04256213179057,53.36715283298322,-10.944109685084776,-20.507201722631226,0.00492429954714734
IT1,2,2,843,71.17437722419929,1,-19,True,"[74, 74, 74, 74, 74]","[354, 755, 1933, 2705, 3541]",19.194949373496982,0.0,6199.83999998658,-19.194949373496982,True,2,0,3,6,0,0,31.0,0.9028819725263835,48.04256213179057,53.36715283298322,-15.163005235543125,-28.412617931852136,0.019824523507372845
IT1,2,3,652,92.02453987730061,2,-19,True,"[74, 74, 74, 74]","[418, 877, 1573, 2194]",37.727982709047225,37.0,2412.2499999939464,-0.7279827090472253,True,2,0,4,6,0,0,31.0,0.9028819725263835,48.04256213179057,53.36715283298322,2.0558903149152243,3.852351504209523,0.00012404638342459594
IT1,2,7,358,167.5977653631285,5,-13,True,"[74, 74, 74, 74]","[395, 789, 1115, 1498]",80.97360155738828,75.0,8574.280000000726,-5.973601557388278,True,2,0,5,6,0,0,31.0,0.9028819725263835,48.04256213179057,53.36715283298322,-6.102020693811909,-11.43403829863038,0.001972513950968347
IT1,2,5,652,92.02453987730061,2,-13,True,"[74, 74, 74, 74, 74]","[453, 1051, 1556, 2148, 2757]",37.727982709047225,35.0,1894.750000006752,-2.7279827090472253,True,2,0,6,6,0,0,31.0,0.9028819725263835,48.04256213179057,53.36715283298322,0.05589031491522434,0.1047279308494076,1.8817474018008083e-06
IT1,2,3,843,71.17437722419929,1,-19,True,"[74, 74, 74, 74]","[401, 842, 1811, 2786]",19.194949373496982,0.0,5929.249999986496,-19.194949373496982,True,2,0,7,6,0,0,31.0,0.9028819725263835,48.04256213179057,53.36715283298322,-15.163005235543125,-28.412617931852136,0.019824523507372845
IT1,2,6,599,100.1669449081803,3,-19,True,"[74, 74, 74, 74, 74]","[145, 993, 1416, 1985, 2583]",43.84378078116181,50.0,740.0149999884889,6.156219218838189,True,2,0,8,6,0,0,31.0,0.9028819725263835,48.04256213179057,53.36715283298322,8.52823570671115,15.980308586821085,0.0024123106365047694
IT1,2,7,390,153.84615384615384,4,-16,True,"[74, 74, 74, 74]","[401, 964, 1242, 1649]",74.79787473312055,100.0,2398.285000002943,25.20212526687945,True,2,0,9,6,0,0,31.0,0.9028819725263835,48.04256213179057,53.36715283298322,25.48959845189708,47.7627100169065,0.042238258795190976
IT1,2,6,918,65.359477124183,1,-16,True,"[74, 74, 74]","[656, 1324, 2049]",13.046873249910696,22.0,4352.719999995315,8.953126750089304,True,2,0,10,6,0,0,31.0,0.9028819725263835,48.04256213179057,53.36715283298322,13.399101126781765,25.107393622281716,0.014992503377159802
IT1,2,4,463,129.58963282937364,4,-16,True,"[74, 74, 74, 74]","[406, 755, 1062, 1556]",62.42097125758927,64.0,1759.0750000090338,1.5790287424107277,True,2,0,11,6,0,0,31.0,0.9028819725263835,48.04256213179057,53.36715283298322,2.7000004394522676,5.059292647486995,0.0003969007600777366
IT1,2,7,1000,60.0,1,-19,True,"[74, 74, 74, 74, 74]","[395, 778, 1440, 2357, 3384]",6.875176187496734,0.0,2661.790000012843,-6.875176187496734,True,2,0,12,6,0,0,31.0,0.9028819725263835,48.04256213179057,53.36715283298322,-2.013580865843849,-3.773071559851641,0.001293454132645382
IT1,2,4,302,198.67549668874173,5,-19,True,"[74, 74, 74, 74]","[366, 760, 1027, 1364]",93.24415345434716,100.0,2103.5350000020117,6.755846545652844,True,2,0,13,6,0,0,31.0,0.9028819725263835,48.04256213179057,53.36715283298322,5.801090937586963,10.87015257445332,0.00645139261523737
IT1,2,6,774,77.51937984496124,2,-16,True,"[74, 74, 74, 74]","[406, 1178, 1776, 2577]",25.354902613380577,22.0,2097.765000013169,-3.3549026133805775,True,2,0,14,6,0,0,31.0,0.9028819725263835,48.04256213179057,53.36715283298322,0.26221144451891476,0.4913348953419465,9.421316650173586e-06
IT1,2,3,390,153.84615384615384,4,-13,True,"[74, 74, 74, 74]","[360, 755, 1202, 1683]",74.79787473312055,88.0,3866.65000001085,13.202125266879449,True,2,0,15,6,0,0,31.0,0.9028819725263835,48.04256213179057,53.36715283298322,13.48959845189708,25.276968576745812,0.01253107951853859
IT1,2,2,302,198.67549668874173,5,-16,True,"[74, 74, 74, 74]","[372, 708, 998, 1353]",93.24415345434716,100.0,1823.9249999751337,6.755846545652844,True,2,0,16,6,0,0,31.0,0.9028819725263835,48.04256213179057,53.36715283298322,5.801090937586963,10.87015257445332,0.00645139261523737
IT1,2,4,599,100.1669449081803,3,-19,True,"[74, 74, 74, 74, 74]","[377, 627, 1300, 1881, 2456]",43.84378078116181,43.0,1821.2749999947846,-0.8437807811618114,True,2,0,17,6,0,0,31.0,0.9028819725263835,48.04256213179057,53.36715283298322,1.5282357067111505,2.8636260800606816,7.032055754279933e-05
IT1,2,2,390,153.84615384615384,4,-19,True,"[74, 74, 74, 74]","[302, 772, 1271, 1689]",74.79787473312055,77.0,2020.2200000057928,2.202125266879449,True,2,0,18,6,0,0,31.0,0.9028819725263835,48.04256213179057,53.36715283298322,2.4895984518970806,4.6650389232651746,0.0006845141874794567
IT1,2,5,302,198.67549668874173,5,-13,True,"[74, 74, 74, 74]","[406, 726, 1022, 1347]",93.24415345434716,100.0,3338.6349999927916,6.755846545652844,True,2,0,19,6,0,0,31.0,0.9028819725263835,48.04256213179057,53.36715283298322,5.801090937586963,10.87015257445332,0.00645139261523737
IT1,2,7,504,119.04761904761905,3,-13,True,"[74, 74, 74, 74, 74]","[389, 656, 1149, 1672, 2188]",56.30039424560527,50.0,2479.8899999877904,-6.300394245605268,True,2,0,20,6,0,0,31.0,0.9028819725263835,48.04256213179057,53.36715283298322,-4.767244184055855,-8.932918342065815,0.000676826568442741
IT1,2,5,1000,60.0,1,-13,True,"[74, 74, 74, 74, 74]","[372, 749, 1422, 2316, 3117]",6.875176187496734,0.0,2715.599999995902,-6.875176187496734,True,2,0,21,6,0,0,31.0,0.9028819725263835,48.04256213179057,53.36715283298322,-2.013580865843849,-3.773071559851641,0.001293454132645382
IT1,2,6,358,167.5977653631285,5,-16,True,,,80.97360155738828,93.0,1964.6799999754876,12.026398442611722,False,1,0,22,6,0,0,31.0,0.9028819725263835,48.04256213179057,53.36715283298322,11.897979306188091,22.29457386161066,0.012996071775289731
IT1,2,5,550,109.0909090909091,3,-13,True,"[74, 74, 74, 74]","[145, 697, 1306, 1881]",50.0,50.0,5439.489999989746,0.0,True,2,0,23,6,0,0,31.0,0.9028819725263835,48.04256213179057,53.36715283298322,1.957437868209432,3.667870149144719,0.00013605910498845858
IT1,2,2,652,92.02453987730061,2,-13,True,"[74, 74, 74, 74, 74]","[430, 946, 1474, 1985, 2525]",37.727982709047225,0.0,2851.0499999974854,-37.727982709047225,True,2,0,24,6,0,0,31.0,0.9028819725263835,48.04256213179057,53.36715283298322,-34.944109685084776,-65.47868460295263,0.0485258794333863
IT1,2,5,390,153.84615384615384,4,-19,True,"[74, 74, 74]","[505, 975, 1428]",74.79787473312055,75.0,2613.2499999948777,0.20212526687944887,True,2,0,25,6,0,0,31.0,0.9028819725263835,48.04256213179057,53.36715283298322,0.4895984518970806,0.917415349905059,0.00011166202248851214
IT1,2,7,652,92.02453987730061,2,-16,True,"[74, 74, 74, 74, 74]","[499, 1033, 1538, 2043, 2560]",37.727982709047225,11.0,3648.8599999865983,-26.727982709047225,True,2,0,26,6,0,0,31.0,0.9028819725263835,48.04256213179057,53.36715283298322,-23.944109685084776,-44.86675494947198,0.022947498687655866
IT1,2,3,358,167.5977653631285,5,-13,True,"[74, 74, 74]","[35, 598, 1132]",80.97360155738828,92.0,2534.4850000110455,11.026398442611722,True,2,0,27,6,0,0,31.0,0.9028819725263835,48.04256213179057,53.36715283298322,10.897979306188091,20.420762074930604,0.011066950680900214
IT1,2,4,918,65.359477124183,1,-19,True,"[74, 74, 74, 74, 74, 74, 74]","[110, 702, 1265, 1771, 2334, 2908, 3442]",13.046873249910696,0.0,4291.280000004917,-13.046873249910696,True,2,0,28,6,0,0,31.0,0.9028819725263835,48.04256213179057,53.36715283298322,-8.600898873218235,-16.116465684679557,0.009105038822075204
IT1,2,6,463,129.58963282937364,4,-16,True,"[74, 74, 74]","[569, 1120, 1753]",62.42097125758927,78.0,3239.2950000066776,15.579028742410728,True,2,0,29,6,0,0,31.0,0.9028819725263835,48.04256213179057,53.36715283298322,16.700000439452268,31.292657661007805,0.011557001651209283
IT1,2,2,550,109.0909090909091,3,-16,True,"[74, 74, 74, 74]","[470, 958, 1457, 1939]",50.0,22.0,2579.5750000106636,-28.0,True,2,0,30,6,0,0,31.0,0.9028819725263835,48.04256213179057,53.36715283298322,-26.042562131790568,-48.7988598778969,0.021577406597347328
IT1,2,2,1000,60.0,1,-16,True,"[74, 74, 74, 74, 74, 74, 74, 74]","[70, 691, 1353, 1834, 2363, 2932, 3408, 3878]",6.875176187496734,0.0,2978.964999987511,-6.875176187496734,True,2,1,31,6,0,0,31.0,0.9028819725263835,48.04256213179057,53.36715283298322,-2.013580865843849,-3.773071559851641,0.001293454132645382
IT1,2,4,425,141.1764705882353,4,-19,True,"[74, 74, 74]","[134, 731, 1324]",68.5984388693479,80.0,2844.115000014426,11.401561130652098,True,2,1,32,6,0,0,31.0,0.9028819725263835,48.04256213179057,53.36715283298322,12.10652327630173,22.685346010850648,0.007852499079511247
IT1,2,3,302,198.67549668874173,5,-16,True,"[74, 74, 74]","[93, 656, 1178]",93.24415345434716,100.0,2292.604999995092,6.755846545652844,True,2,1,33,6,0,0,31.0,0.9028819725263835,48.04256213179057,53.36715283298322,5.801090937586963,10.87015257445332,0.00645139261523737
IT1,2,6,652,92.02453987730061,2,-13,True,"[74, 74, 74, 74, 74]","[546, 1068, 1573, 2154, 2670]",37.727982709047225,23.0,2342.210000002524,-14.727982709047225,True,2,1,34,6,0,0,31.0,0.9028819725263835,48.04256213179057,53.36715283298322,-11.944109685084776,-22.381013509311284,0.005841245777714772
IT1,2,5,463,129.58963282937364,4,-16,True,"[74, 74, 74, 74]","[116, 673, 1358, 1968]",62.42097125758927,24.0,2518.1100000045262,-38.42097125758927,True,2,1,35,6,0,0,31.0,0.9028819725263835,48.04256213179057,53.36715283298322,-37.29999956054773,-69.89317881971532,0.05304243123456688
IT1,2,7,843,71.17437722419929,1,-16,True,"[74, 74, 74, 74, 74, 74, 74]","[441, 929, 1474, 1974, 2479, 2943, 3367]",19.194949373496982,78.0,2282.9149999888614,58.80505062650302,True,2,1,36,6,0,0,31.0,0.9028819725263835,48.04256213179057,53.36715283298322,62.836994764456875,117.74470142919238,0.297280112236015
IT1,2,2,329,182.370820668693,5,-13,True,"[74, 74, 74]","[64, 673, 1225]",87.06720173383901,89.0,2033.9399999938905,1.9327982661609866,True,2,1,37,6,0,0,31.0,0.9028819725263835,48.04256213179057,53.36715283298322,1.394017467793276,2.6121263619889286,0.0006813696239252503
IT1,2,4,774,77.51937984496124,2,-13,True,"[74, 74, 74, 74, 74, 74]","[517, 975, 1498, 2090, 2537, 3088]",25.354902613380577,0.0,2351.2100000225473,-25.354902613380577,True,2,1,38,6,0,0,31.0,0.9028819725263835,48.04256213179057,53.36715283298322,-21.737788555481085,-40.73252441161932,0.030476289785988632
IT1,2,2,599,100.1669449081803,3,-19,True,"[74, 74, 74, 74, 74]","[23, 639, 1277, 1846, 2421]",43.84378078116181,34.0,2819.00499999756,-9.843780781161811,True,2,1,39,6,0,0,31.0,0.9028819725263835,48.04256213179057,53.36715283298322,-7.4717642932888495,-14.00068000005984,0.0019343125995923487
IT1,2,3,774,77.51937984496124,2,-13,True,"[74, 74, 74, 74, 74, 74]","[75, 685, 1248, 1771, 2287, 2810]",25.354902613380577,26.0,2374.2549999733455,0.6450973866194225,True,2,1,40,6,0,0,31.0,0.9028819725263835,48.04256213179057,53.36715283298322,4.262211444518915,7.986582042062178,0.0007903600948313783
IT1,2,2,425,141.1764705882353,4,-13,True,"[74, 74, 74, 74]","[99, 726, 1254, 1887]",68.5984388693479,72.0,1949.590000003809,3.401561130652098,True,2,1,41,6,0,0,31.0,0.9028819725263835,48.04256213179057,53.36715283298322,4.106523276301729,7.694851717410188,0.0010988609079567457
IT1,2,3,599,100.1669449081803,3,-13,True,"[74, 74, 74, 74]","[35, 668, 1347, 1950]",43.84378078116181,39.0,3506.519999995362,-4.843780781161811,True,2,1,42,6,0,0,31.0,0.9028819725263835,48.04256213179057,53.36715283298322,-2.4717642932888495,-4.63162106665955,0.00022166116740203224
IT1,2,5,710,84.50704225352112,2,-19,True,"[74, 74, 74, 74, 74, 74]","[6, 592, 1126, 1672, 2264, 2937]",31.580629700998873,39.0,2064.234999998007,7.419370299001127,True,2,1,43,6,0,0,31.0,0.9028819725263835,48.04256213179057,53.36715283298322,10.61722486489153,19.894681093666332,0.004947364303873437
IT1,2,6,1000,60.0,1,-19,True,"[74, 74, 74, 74, 74, 74, 74, 74]","[0, 546, 1051, 1596, 2113, 2653, 3158, 3692]",6.875176187496734,0.0,1607.799999997951,-6.875176187496734,True,2,1,44,6,0,0,31.0,0.9028819725263835,48.04256213179057,53.36715283298322,-2.013580865843849,-3.773071559851641,0.001293454132645382
IT1,2,7,302,198.67549668874173,5,-19,True,"[74, 74]","[470, 958]",93.24415345434716,100.0,2904.655000020284,6.755846545652844,True,2,1,45,6,0,0,31.0,0.9028819725263835,48.04256213179057,53.36715283298322,5.801090937586963,10.87015257445332,0.00645139261523737
IT1,2,4,1000,60.0,1,-16,True,"[74, 74, 74, 74, 74, 74, 74]","[522, 1097, 1672, 2212, 2734, 3222, 3698]",6.875176187496734,0.0,2778.9449999982025,-6.875176187496734,True,2,1,46,6,0,0,31.0,0.9028819725263835,48.04256213179057,53.36715283298322,-2.013580865843849,-3.773071559851641,0.001293454132645382
IT1,2,6,302,198.67549668874173,5,-13,True,"[74, 74]","[627, 1190]",93.24415345434716,87.0,3631.6550000046846,-6.244153454347156,True,2,1,47,6,0,0,31.0,0.9028819725263835,48.04256213179057,53.36715283298322,-7.198909062413037,-13.489400652387431,0.0040982238053829554
IT1,2,7,550,109.0909090909091,3,-16,True,"[74, 74, 74, 74]","[41, 633, 1248, 1852]",50.0,50.0,7288.870000018505,0.0,True,2,1,48,6,0,0,31.0,0.9028819725263835,48.04256213179057,53.36715283298322,1.957437868209432,3.667870149144719,0.00013605910498845858
IT1,2,3,463,129.58963282937364,4,-19,True,"[74, 74, 74, 74]","[35, 650, 1219, 1712]",62.42097125758927,34.0,6749.65000001248,-28.420971257589272,True,2,1,49,6,0,0,31.0,0.9028819725263835,48.04256213179057,53.36715283298322,-27.299999560547732,-51.155060952914745,0.02814055791864192
IT1,2,7,710,84.50704225352112,2,-19,True,"[74, 74, 74, 74, 74, 74]","[104, 697, 1213, 1689, 2188, 3024]",31.580629700998873,36.0,2368.1849999993574,4.419370299001127,True,2,1,50,6,0,0,31.0,0.9028819725263835,48.04256213179057,53.36715283298322,7.617224864891529,14.273245733626158,0.0024555927675360776
IT1,2,6,425,141.1764705882353,4,-19,True,"[74, 74, 74]","[81, 708, 1277]",68.5984388693479,62.0,2360.275000013644,-6.598438869347902,True,2,1,51,6,0,0,31.0,0.9028819725263835,48.04256213179057,53.36715283298322,-5.893476723698271,-11.04326614939039,0.0013091733006653009
IT1,2,4,358,167.5977653631285,5,-13,True,"[74, 74]","[586, 1196]",80.97360155738828,73.0,2516.3250000041444,-7.973601557388278,True,2,1,52,6,0,0,31.0,0.9028819725263835,48.04256213179057,53.36715283298322,-8.102020693811909,-15.181661871990496,0.003845794699205829
IT1,2,7,463,129.58963282937364,4,-13,True,"[74, 74, 74, 74]","[70, 627, 1149, 1683]",62.42097125758927,46.0,3337.085000006482,-16.420971257589272,True,2,1,53,6,0,0,31.0,0.9028819725263835,48.04256213179057,53.36715283298322,-15.299999560547732,-28.669319512754043,0.008589941753158314
IT1,2,6,550,109.0909090909091,3,-16,True,"[74, 74, 74]","[679, 1306, 1869]",50.0,50.0,1134.5150000124704,0.0,True,2,1,54,6,0,0,31.0,0.9028819725263835,48.04256213179057,53.36715283298322,1.957437868209432,3.667870149144719,0.00013605910498845858
IT1,2,5,918,65.359477124183,1,-19,True,"[74, 74, 74, 74, 74, 74]","[639, 1202, 1718, 2165, 2670, 3181]",13.046873249910696,22.0,1598.9600000029895,8.953126750089304,True,2,1,55,6,0,0,31.0,0.9028819725263835,48.04256213179057,53.36715283298322,13.399101126781765,25.107393622281716,0.014992503377159802
IT1,2,4,504,119.04761904761905,3,-16,True,"[74, 74, 74, 74]","[35, 685, 1231, 1724]",56.30039424560527,53.0,2877.455000008922,-3.3003942456052684,True,2,1,56,6,0,0,31.0,0.9028819725263835,48.04256213179057,53.36715283298322,-1.7672441840558548,-3.3114829820256424,7.326154576582129e-05
IT1,2,3,918,65.359477124183,1,-16,True,"[74, 74, 74, 74, 74, 74]","[551, 1103, 1643, 2148, 2664, 3123]",13.046873249910696,22.0,1719.360000017332,8.953126750089304,True,2,1,57,6,0,0,31.0,0.9028819725263835,48.04256213179057,53.36715283298322,13.399101126781765,25.107393622281716,0.014992503377159802
IT1,2,5,329,182.370820668693,5,-19,True,"[74, 74, 74]","[35, 627, 1202]",87.06720173383901,100.0,2265.1349999941885,12.932798266160987,True,2,1,58,6,0,0,31.0,0.9028819725263835,48.04256213179057,53.36715283298322,12.394017467793276,23.224056015469564,0.018221740591896955
IT1,2,2,710,84.50704225352112,2,-16,True,"[74, 74, 74, 74, 74, 74]","[6, 534, 1080, 1602, 2171, 2752]",31.580629700998873,21.0,1742.2150000056718,-10.580629700998873,True,2,1,59,6,0,0,31.0,0.9028819725263835,48.04256213179057,53.36715283298322,-7.382775135108471,-13.833931066574708,0.002955432140276072
IT1,2,5,599,100.1669449081803,3,-16,True,"[74, 74, 74, 74]","[644, 1248, 1933, 2537]",43.84378078116181,50.0,709.6500000043306,6.156219218838189,True,2,1,60,6,0,0,31.0,0.9028819725263835,48.04256213179057,53.36715283298322,8.52823570671115,15.980308586821085,0.0024123106365047694
IT1,2,4,843,71.17437722419929,1,-13,True,"[74, 74, 74]","[389, 755, 1620]",19.194949373496982,11.0,3216.1550000018906,-8.194949373496982,True,2,2,61,6,0,0,31.0,0.9028819725263835,48.04256213179057,53.36715283298322,-4.163005235543125,-7.800688278371497,0.00194051354004854
IT1,2,2,774,77.51937984496124,2,-19,True,"[74, 74, 74]","[685, 1712, 2554]",25.354902613380577,24.0,2217.4850000010338,-1.3549026133805775,True,2,2,62,6,0,0,31.0,0.9028819725263835,48.04256213179057,53.36715283298322,2.2622114445189148,4.238958468702062,0.00015679957462654454
IT1,2,4,329,182.370820668693,5,-16,True,"[74, 74]","[470, 987]",87.06720173383901,100.0,2158.2500000076834,12.932798266160987,True,2,2,63,6,0,0,31.0,0.9028819725263835,48.04256213179057,53.36715283298322,12.394017467793276,23.224056015469564,0.018221740591896955
IT1,2,7,774,77.51937984496124,2,-13,True,"[74, 74, 74, 74, 74, 74]","[464, 964, 1498, 2026, 2566, 3036]",25.354902613380577,23.0,2090.1650000014342,-2.3549026133805775,True,2,2,64,6,0,0,31.0,0.9028819725263835,48.04256213179057,53.36715283298322,1.2622114445189148,2.3651466820220044,2.233766285980124e-05
IT1,2,6,504,119.04761904761905,3,-13,True,"[74, 74, 74, 74]","[511, 1091, 1654, 2183]",56.30039424560527,53.0,2095.369999995455,-3.3003942456052684,True,2,2,65,6,0,0,31.0,0.9028819725263835,48.04256213179057,53.36715283298322,-1.7672441840558548,-3.3114829820256424,7.326154576582129e-05
IT1,2,4,710,84.50704225352112,2,-19,True,"[74, 74, 74, 74, 74]","[551, 1068, 1643, 2177, 2781]",31.580629700998873,35.0,2351.920000015525,3.4193702990011268,True,2,2,66,6,0,0,31.0,0.9028819725263835,48.04256213179057,53.36715283298322,6.617224864891529,12.3994339469461,0.0018169829525262438
IT1,2,7,329,182.370820668693,5,-16,True,"[74, 74]","[580, 1115]",87.06720173383901,73.0,2613.694999978179,-14.067201733839013,True,2,2,67,6,0,0,31.0,0.9028819725263835,48.04256213179057,53.36715283298322,-14.605982532206724,-27.368862224892,0.01749665835687342
IT1,2,3,710,84.50704225352112,2,-16,True,"[74, 74, 74, 74, 74]","[534, 1051, 1591, 2154, 2943]",31.580629700998873,24.0,2458.6699999927077,-7.580629700998873,True,2,2,68,6,0,0,31.0,0.9028819725263835,48.04256213179057,53.36715283298322,-4.382775135108471,-8.212495706534535,0.0011276379918045015
IT1,2,4,550,109.0909090909091,3,-13,True,"[74, 74, 74, 74, 74]","[46, 691, 1236, 1765, 2241]",50.0,50.0,484.5550000027288,0.0,True,2,2,69,6,0,0,31.0,0.9028819725263835,48.04256213179057,53.36715283298322,1.957437868209432,3.667870149144719,0.00013605910498845858
IT1,2,6,390,153.84615384615384,4,-13,True,"[74, 74, 74]","[470, 987, 1602]",74.79787473312055,63.0,1986.5850000060163,-11.797874733120551,True,2,2,70,6,0,0,31.0,0.9028819725263835,48.04256213179057,53.36715283298322,-11.51040154810292,-21.568326090255635,0.0068906859218176835
IT1,2,5,504,119.04761904761905,3,-19,True,"[74, 74, 74, 74, 74]","[12, 499, 1103, 1660, 2136]",56.30039424560527,53.0,3012.0850000239443,-3.3003942456052684,True,2,2,71,6,0,0,31.0,0.9028819725263835,48.04256213179057,53.36715283298322,-1.7672441840558548,-3.3114829820256424,7.326154576582129e-05
IT1,2,3,1000,60.0,1,-13,True,"[74, 74, 74, 74, 74]","[1376, 2003, 2548, 3082, 3767]",6.875176187496734,0.0,3742.7350000070874,-6.875176187496734,True,2,2,72,6,0,0,31.0,0.9028819725263835,48.04256213179057,53.36715283298322,-2.013580865843849,-3.773071559851641,0.001293454132645382
IT1,2,5,774,77.51937984496124,2,-16,True,"[74, 74, 74, 74, 74, 74]","[122, 673, 1254, 1788, 2328, 2961]",25.354902613380577,35.0,2080.889999982901,9.645097386619423,True,2,2,73,6,0,0,31.0,0.9028819725263835,48.04256213179057,53.36715283298322,13.262211444518915,24.8508881221827,0.009657887930830352
IT1,2,3,504,119.04761904761905,3,-19,True,"[74, 74, 74, 74]","[35, 662, 1202, 1771]",56.30039424560527,50.0,519.2699999897741,-6.300394245605268,True,2,2,74,6,0,0,31.0,0.9028819725263835,48.04256213179057,53.36715283298322,-4.767244184055855,-8.932918342065815,0.000676826568442741
IT1,2,6,843,71.17437722419929,1,-13,True,"[74, 74, 74, 74, 74, 74]","[656, 1149, 1724, 2426, 2926, 3529]",19.194949373496982,34.0,2863.6199999891687,14.805050626503018,True,2,2,75,6,0,0,31.0,0.9028819725263835,48.04256213179057,53.36715283298322,18.836994764456875,35.296982815269835,0.025040117202822895
IT1,2,5,358,167.5977653631285,5,-16,True,"[74, 74, 74]","[418, 952, 1573]",80.97360155738828,77.0,3128.515000018524,-3.973601557388278,True,2,2,76,6,0,0,31.0,0.9028819725263835,48.04256213179057,53.36715283298322,-4.102020693811909,-7.686414725270263,0.0007188573040299485
IT1,2,7,425,141.1764705882353,4,-19,True,"[74, 74, 74]","[557, 1086, 1620]",68.5984388693479,63.0,1888.4050000051502,-5.598438869347902,True,2,2,77,6,0,0,31.0,0.9028819725263835,48.04256213179057,53.36715283298322,-4.893476723698271,-9.169454362710331,0.0008555240560368612
IT1,2,6,329,182.370820668693,5,-19,True,"[74, 74, 74]","[6, 621, 1190]",87.06720173383901,75.0,2430.7499999995343,-12.067201733839013,True,2,2,78,6,0,0,31.0,0.9028819725263835,48.04256213179057,53.36715283298322,-12.605982532206724,-23.621238651531883,0.012651229772957058
IT1,2,2,918,65.359477124183,1,-13,True,"[74, 74, 74, 74, 74, 74, 74]","[215, 685, 1283, 1863, 2479, 3001, 3576]",13.046873249910696,23.0,2072.4049999844283,9.953126750089304,True,2,2,79,6,0,0,31.0,0.9028819725263835,48.04256213179057,53.36715283298322,14.399101126781765,26.981205408961774,0.01751567465359367
IT1,2,7,599,100.1669449081803,3,-19,True,"[74, 74, 74, 74, 74]","[122, 691, 1289, 1834, 2537]",43.84378078116181,38.0,2408.5250000061933,-5.843780781161811,True,2,2,80,6,0,0,31.0,0.9028819725263835,48.04256213179057,53.36715283298322,-3.4717642932888495,-6.505432853339607,0.00042877139429642656
IT1,2,4,390,153.84615384615384,4,-13,True,"[74, 74, 74]","[75, 662, 1213]",74.79787473312055,76.0,1733.9199999987613,1.2021252668794489,True,2,2,81,6,0,0,31.0,0.9028819725263835,48.04256213179057,53.36715283298322,1.4895984518970806,2.7912271365851167,0.00033727776635734843
IT1,2,6,710,84.50704225352112,2,-19,True,"[74, 74, 74, 74, 74]","[81, 702, 1324, 1916, 2577]",31.580629700998873,31.0,1777.8050000197254,-0.5806297009988732,True,2,2,82,6,0,0,31.0,0.9028819725263835,48.04256213179057,53.36715283298322,2.6172248648915293,4.90418680022587,0.0002224471780000044
IT1,2,3,425,141.1764705882353,4,-16,True,"[74, 74, 74]","[163, 731, 1329]",68.5984388693479,70.0,2159.704999998212,1.401561130652098,True,2,2,83,6,0,0,31.0,0.9028819725263835,48.04256213179057,53.36715283298322,2.106523276301729,3.9472281440500723,0.00037182471030719634
IT1,2,2,358,167.5977653631285,5,-19,True,"[74, 74, 74]","[46, 644, 1190]",80.97360155738828,67.0,2736.8849999911617,-13.973601557388278,True,2,2,84,6,0,0,31.0,0.9028819725263835,48.04256213179057,53.36715283298322,-14.102020693811909,-26.424532592070843,0.013183381551712768
IT1,2,5,425,141.1764705882353,4,-13,True,"[74, 74, 74, 74]","[81, 650, 1219, 1840]",68.5984388693479,58.0,1698.3849999960512,-10.598438869347902,True,2,2,85,6,0,0,31.0,0.9028819725263835,48.04256213179057,53.36715283298322,-9.89347672369827,-18.53851329611062,0.0040851436244181355
IT1,2,7,918,65.359477124183,1,-13,True,"[74, 74, 74, 74, 74, 74]","[551, 1051, 1672, 2177, 2723, 3233]",13.046873249910696,23.0,1605.3550000069663,9.953126750089304,True,2,2,86,6,0,0,31.0,0.9028819725263835,48.04256213179057,53.36715283298322,14.399101126781765,26.981205408961774,0.01751567465359367
IT1,2,2,504,119.04761904761905,3,-13,True,"[74, 74, 74, 74]","[41, 627, 1184, 1753]",56.30039424560527,50.0,1873.9300000015646,-6.300394245605268,True,2,2,87,6,0,0,31.0,0.9028819725263835,48.04256213179057,53.36715283298322,-4.767244184055855,-8.932918342065815,0.000676826568442741
IT1,2,5,843,71.17437722419929,1,-16,True,"[74, 74, 74, 74, 74, 74, 74]","[6, 575, 1080, 1654, 2194, 2711, 3390]",19.194949373496982,24.0,3479.409999999916,4.805050626503018,True,2,2,88,6,0,0,31.0,0.9028819725263835,48.04256213179057,53.36715283298322,8.836994764456875,16.558864948469253,0.004940356596121768
IT1,2,3,329,182.370820668693,5,-19,True,"[74, 74, 74]","[116, 702, 1219]",87.06720173383901,100.0,2509.4850000168663,12.932798266160987,True,2,2,89,6,0,0,31.0,0.9028819725263835,48.04256213179057,53.36715283298322,12.394017467793276,23.224056015469564,0.018221740591896955
IT1,2,2,463,129.58963282937364,4,-16,True,"[74, 74, 74]","[534, 1091, 1625]",62.42097125758927,50.0,540.804999996908,-12.420971257589272,True,2,2,90,6,0,0,31.0,0.9028819725263835,48.04256213179057,53.36715283298322,-11.299999560547732,-21.174072366033812,0.004577707713421688
IT1,3,7,843,71.17437722419929,1,-16,False,"[74, 74, 74, 74, 74]","[576, 1205, 1851, 2459, 3205]",19.194949373496982,3.0,1938.495000009425,-16.194949373496982,True,0,0,1,6,0,0,42.0,0.6025996705917632,47.221933994409035,23.070546935054114,-30.00814666809991,-130.07124084476987,0.040241750195058365
IT1,3,2,302,198.67549668874173,5,-16,False,"[74, 74, 74]","[165, 651, 1120]",93.24415345434716,73.0,2630.3199999965727,-20.244153454347156,True,0,0,2,6,0,0,42.0,0.6025996705917632,47.221933994409035,23.070546935054114,5.824740566886987,25.247518332721853,0.0020204327454976844
IT1,3,3,918,65.359477124183,1,-13,False,"[74, 74, 74, 74, 74]","[469, 1024, 1579, 2229, 2736]",13.046873249910696,6.0,2943.3999999891967,-7.046873249910696,True,0,0,3,6,0,0,42.0,0.6025996705917632,47.221933994409035,23.070546935054114,-24.171357092710256,-104.77149571163193,0.032423787783317476
IT1,3,5,390,153.84615384615384,4,-13,False,,,74.79787473312055,76.0,8608.040000020992,1.2021252668794489,False,0,0,4,6,0,0,42.0,0.6025996705917632,47.221933994409035,23.070546935054114,17.336055347189955,75.14366866114044,0.010686493966027368
IT1,3,2,710,84.50704225352112,2,-19,False,,,31.580629700998873,0.0,2095.5949999624863,-31.580629700998873,False,0,0,5,6,0,0,42.0,0.6025996705917632,47.221933994409035,23.070546935054114,-38.72303505446409,-167.84619438573904,0.04250013630726677
IT1,3,6,918,65.359477124183,1,-13,False,,,13.046873249910696,0.0,2322.764999989886,-13.046873249910696,False,0,0,6,6,0,0,42.0,0.6025996705917632,47.221933994409035,23.070546935054114,-30.171357092710256,-130.77868148356268,0.05120558554609188
IT1,3,3,710,84.50704225352112,2,-13,False,,,31.580629700998873,21.0,3195.3750000102445,-10.580629700998873,False,0,0,7,6,0,0,42.0,0.6025996705917632,47.221933994409035,23.070546935054114,-17.72303505446409,-76.82104418398141,0.008646011230208266
IT1,3,4,843,71.17437722419929,1,-16,False,,,19.194949373496982,50.0,3751.9350000075065,30.805050626503018,False,0,0,8,6,0,0,42.0,0.6025996705917632,47.221933994409035,23.070546935054114,16.99185333190009,73.65171436868769,0.014631611977240727
IT1,3,6,774,77.51937984496124,2,-16,False,,,25.354902613380577,25.0,3296.4049999718554,-0.3549026133805775,False,0,0,9,6,0,0,42.0,0.6025996705917632,47.221933994409035,23.070546935054114,-10.850416474869377,-47.03146616079098,0.0038797651774144463
IT1,3,7,302,198.67549668874173,5,-19,False,,,93.24415345434716,70.0,3626.339999958873,-23.244153454347156,False,0,0,10,6,0,0,42.0,0.6025996705917632,47.221933994409035,23.070546935054114,2.8247405668869874,12.243925446756478,0.0003624678383804687
IT1,3,5,550,109.0909090909091,3,-16,False,,,50.0,27.0,3153.280000027735,-23.0,False,0,0,11,6,0,0,42.0,0.6025996705917632,47.221933994409035,23.070546935054114,-20.221933994409035,-87.65259901005291,0.007822547870774473
IT1,3,7,774,77.51937984496124,2,-19,False,,,25.354902613380577,28.0,4098.800000036135,2.6450973866194225,False,0,0,12,6,0,0,42.0,0.6025996705917632,47.221933994409035,23.070546935054114,-7.850416474869377,-34.0278732748256,0.0019443805151108545
IT1,3,4,463,129.58963282937364,4,-13,False,,,62.42097125758927,34.0,10113.58999996446,-28.420971257589272,False,0,0,13,6,0,0,42.0,0.6025996705917632,47.221933994409035,23.070546935054114,-18.953106001952463,-82.15282479131224,0.008574984046916834
IT1,3,5,774,77.51937984496124,2,-13,False,,,25.354902613380577,37.0,3862.779999966733,11.645097386619423,False,0,0,14,6,0,0,42.0,0.6025996705917632,47.221933994409035,23.070546935054114,1.1495835251306232,4.982905383070523,0.00010988829951146338
IT1,3,7,425,141.1764705882353,4,-16,False,,,68.5984388693479,28.0,10267.255000013392,-40.5984388693479,False,0,0,15,6,0,0,42.0,0.6025996705917632,47.221933994409035,23.070546935054114,-27.803457131489544,-120.51494578676025,0.02278549445544408
IT1,3,5,302,198.67549668874173,5,-16,False,,,93.24415345434716,78.0,3166.609999956563,-15.244153454347156,False,0,0,16,6,0,0,42.0,0.6025996705917632,47.221933994409035,23.070546935054114,10.824740566886987,46.92017314266415,0.007767534501152115
IT1,3,2,425,141.1764705882353,4,-16,False,,,68.5984388693479,64.0,3868.910000019241,-4.598438869347902,False,0,0,17,6,0,0,42.0,0.6025996705917632,47.221933994409035,23.070546935054114,8.196542868510456,35.528168844824265,0.0018669685042966501
IT1,3,4,329,182.370820668693,5,-19,False,,,87.06720173383901,29.0,24755.45499997679,-58.06720173383901,False,0,0,18,6,0,0,42.0,0.6025996705917632,47.221933994409035,23.070546935054114,-35.32514634144208,-153.11794055375404,0.07614445073623967
IT1,3,6,463,129.58963282937364,4,-13,False,,,62.42097125758927,50.0,7249.055000022054,-12.420971257589272,False,0,0,19,6,0,0,42.0,0.6025996705917632,47.221933994409035,23.070546935054114,-2.953106001952463,-12.800329399496901,0.0002172622009388737
IT1,3,4,550,109.0909090909091,3,-13,False,,,50.0,50.0,1265.1199999963865,0.0,False,0,0,20,6,0,0,42.0,0.6025996705917632,47.221933994409035,23.070546935054114,2.778066005590965,12.04161311568164,0.0001656385291643905
IT1,3,3,302,198.67549668874173,5,-16,False,,,93.24415345434716,100.0,6370.189999986906,6.755846545652844,False,0,0,21,6,0,0,42.0,0.6025996705917632,47.221933994409035,23.070546935054114,32.82474056688699,142.27985430641024,0.07736461184634882
IT1,3,2,1000,60.0,1,-16,False,,,6.875176187496734,0.0,4374.5700000436045,-6.875176187496734,False,0,0,22,6,0,0,42.0,0.6025996705917632,47.221933994409035,23.070546935054114,-27.323668557763117,-118.43528735873477,0.0520949287612317
IT1,3,3,504,119.04761904761905,3,-16,False,,,56.30039424560527,50.0,6796.990000002552,-6.300394245605268,False,0,0,23,6,0,0,42.0,0.6025996705917632,47.221933994409035,23.070546935054114,-0.12900481746066106,-0.5591753755289047,1.9157566814849732e-07
IT1,3,6,329,182.370820668693,5,-19,False,,,87.06720173383901,72.0,4352.335000003222,-15.067201733839013,False,0,0,24,6,0,0,42.0,0.6025996705917632,47.221933994409035,23.070546935054114,7.674853658557922,33.26689081174971,0.0030426331981842926
IT1,3,7,550,109.0909090909091,3,-16,False,,,50.0,50.0,933.6449999827892,0.0,False,0,0,25,6,0,0,42.0,0.6025996705917632,47.221933994409035,23.070546935054114,2.778066005590965,12.04161311568164,0.0001656385291643905
IT1,3,5,1000,60.0,1,-13,False,,,6.875176187496734,50.0,7520.989999989979,43.124823812503266,False,0,0,26,6,0,0,42.0,0.6025996705917632,47.221933994409035,23.070546935054114,22.676331442236883,98.29126074068817,0.04150952856976101
IT1,3,2,599,100.1669449081803,3,-16,False,,,43.84378078116181,50.0,840.0649999966845,6.156219218838189,False,0,0,27,6,0,0,42.0,0.6025996705917632,47.221933994409035,23.070546935054114,5.6186128942047375,24.35405155335802,0.0007061332618990349
IT1,3,3,425,141.1764705882353,4,-16,False,,,68.5984388693479,50.0,4613.985000003595,-18.598438869347902,False,0,0,28,6,0,0,42.0,0.6025996705917632,47.221933994409035,23.070546935054114,-5.8034571314895445,-25.155264623014155,0.0010431026630215484
IT1,3,6,550,109.0909090909091,3,-16,False,,,50.0,50.0,3144.6750000468455,0.0,False,0,0,29,6,0,0,42.0,0.6025996705917632,47.221933994409035,23.070546935054114,2.778066005590965,12.04161311568164,0.0001656385291643905
IT1,3,4,710,84.50704225352112,2,-13,False,,,31.580629700998873,50.0,9545.920000004116,18.419370299001127,False,0,0,30,6,0,0,42.0,0.6025996705917632,47.221933994409035,23.070546935054114,11.276964945535909,48.88035371368389,0.004006987943877328
IT1,3,5,710,84.50704225352112,2,-19,False,,,31.580629700998873,50.0,7469.625000027008,18.419370299001127,False,0,1,31,6,0,0,42.0,0.6025996705917632,47.221933994409035,23.070546935054114,11.276964945535909,48.88035371368389,0.004006987943877328
IT1,3,2,918,65.359477124183,1,-19,False,,,13.046873249910696,50.0,3832.8399999882095,36.953126750089304,False,0,1,32,6,0,0,42.0,0.6025996705917632,47.221933994409035,23.070546935054114,19.828642907289744,85.94786661586025,0.025244087249925953
IT1,3,7,504,119.04761904761905,3,-13,False,,,56.30039424560527,50.0,21266.145000001416,-6.300394245605268,False,0,1,33,6,0,0,42.0,0.6025996705917632,47.221933994409035,23.070546935054114,-0.12900481746066106,-0.5591753755289047,1.9157566814849732e-07
IT1,3,6,1000,60.0,1,-16,False,,,6.875176187496734,50.0,12820.100000011735,43.124823812503266,False,0,1,34,6,0,0,42.0,0.6025996705917632,47.221933994409035,23.070546935054114,22.676331442236883,98.29126074068817,0.04150952856976101
IT1,3,2,550,109.0909090909091,3,-13,False,,,50.0,37.0,7849.61499995552,-13.0,False,0,1,35,6,0,0,42.0,0.6025996705917632,47.221933994409035,23.070546935054114,-10.221933994409035,-44.30728939016832,0.001970922049190473
IT1,3,7,918,65.359477124183,1,-19,False,,,13.046873249910696,35.0,9075.394999992568,21.953126750089304,False,0,1,36,6,0,0,42.0,0.6025996705917632,47.221933994409035,23.070546935054114,4.828642907289744,20.929902186033363,0.001877728281207148
IT1,3,4,599,100.1669449081803,3,-19,False,,,43.84378078116181,33.0,4974.344999995083,-10.843780781161811,False,0,1,37,6,0,0,42.0,0.6025996705917632,47.221933994409035,23.070546935054114,-11.381387105795262,-49.332974800445776,0.002537316292065316
IT1,3,7,652,92.02453987730061,2,-13,False,,,37.727982709047225,40.0,74283.95999997156,2.2720172909527747,False,0,1,38,6,0,0,42.0,0.6025996705917632,47.221933994409035,23.070546935054114,-1.5594909764346028,-6.7596619222974,3.40350277680951e-05
IT1,3,4,302,198.67549668874173,5,-16,False,,,93.24415345434716,50.0,4195.309999980964,-43.244153454347156,False,0,1,39,6,0,0,42.0,0.6025996705917632,47.221933994409035,23.070546935054114,-17.175259433113013,-74.4466937930127,0.023623377927878362
IT1,3,5,918,65.359477124183,1,-19,False,,,13.046873249910696,71.0,3840.4149999842048,57.953126750089304,False,0,1,40,6,0,0,42.0,0.6025996705917632,47.221933994409035,23.070546935054114,40.82864290728975,176.9730168176179,0.10281991398503101
IT1,3,4,425,141.1764705882353,4,-16,False,,,68.5984388693479,75.0,5617.834999982733,6.401561130652098,False,0,1,41,6,0,0,42.0,0.6025996705917632,47.221933994409035,23.070546935054114,19.196542868510456,83.20800942669732,0.010513263232807634
IT1,3,2,774,77.51937984496124,2,-13,False,,,25.354902613380577,51.0,3247.414999990724,25.645097386619423,False,0,1,42,6,0,0,42.0,0.6025996705917632,47.221933994409035,23.070546935054114,15.149583525130623,65.66633885090894,0.009097669763785236
IT1,3,7,390,153.84615384615384,4,-13,False,,,74.79787473312055,50.0,64702.529999951366,-24.79787473312055,False,0,1,43,6,0,0,42.0,0.6025996705917632,47.221933994409035,23.070546935054114,-8.663944652810045,-37.55413635055949,0.0029531265348091396
IT1,3,2,329,182.370820668693,5,-19,False,,,87.06720173383901,100.0,2309.349999995902,12.932798266160987,False,0,1,44,6,0,0,42.0,0.6025996705917632,47.221933994409035,23.070546935054114,35.67485365855792,154.63375774742656,0.07331204048605365
IT1,3,6,390,153.84615384615384,4,-16,False,,,74.79787473312055,65.0,3885.6500000110827,-9.797874733120551,False,0,1,45,6,0,0,42.0,0.6025996705917632,47.221933994409035,23.070546935054114,6.336055347189955,27.463828079267394,0.001343118335387765
IT1,3,7,329,182.370820668693,5,-13,False,,,87.06720173383901,50.0,7180.044999986421,-37.06720173383901,False,0,1,46,6,0,0,42.0,0.6025996705917632,47.221933994409035,23.070546935054114,-14.325146341442078,-62.092790351996385,0.013051101858884459
IT1,3,2,463,129.58963282937364,4,-19,False,,,62.42097125758927,50.0,3378.550000023097,-12.420971257589272,False,0,1,47,6,0,0,42.0,0.6025996705917632,47.221933994409035,23.070546935054114,-2.953106001952463,-12.800329399496901,0.0002172622009388737
IT1,3,6,302,198.67549668874173,5,-16,False,,,93.24415345434716,50.0,15140.995000023395,-43.244153454347156,False,0,1,48,6,0,0,42.0,0.6025996705917632,47.221933994409035,23.070546935054114,-17.175259433113013,-74.4466937930127,0.023623377927878362
IT1,3,5,425,141.1764705882353,4,-19,False,,,68.5984388693479,69.0,4604.055000003427,0.4015611306520981,False,0,1,49,6,0,0,42.0,0.6025996705917632,47.221933994409035,23.070546935054114,13.196542868510456,57.200823654766566,0.004924487391709739
IT1,3,3,599,100.1669449081803,3,-13,False,,,43.84378078116181,50.0,16338.095000013709,6.156219218838189,False,0,1,50,6,0,0,42.0,0.6025996705917632,47.221933994409035,23.070546935054114,5.6186128942047375,24.35405155335802,0.0007061332618990349
IT1,3,4,1000,60.0,1,-19,False,,,6.875176187496734,14.0,2814.4450000254437,7.124823812503266,False,0,1,51,6,0,0,42.0,0.6025996705917632,47.221933994409035,23.070546935054114,-13.323668557763117,-57.75185389089634,0.011510752014229029
IT1,3,3,652,92.02453987730061,2,-19,False,,,37.727982709047225,50.0,1736.2399999983609,12.272017290952775,False,0,1,52,6,0,0,42.0,0.6025996705917632,47.221933994409035,23.070546935054114,8.440509023565397,36.585647697587184,0.0018336224776416437
IT1,3,5,504,119.04761904761905,3,-19,False,,,56.30039424560527,50.0,1648.1449999846518,-6.300394245605268,False,0,1,53,6,0,0,42.0,0.6025996705917632,47.221933994409035,23.070546935054114,-0.12900481746066106,-0.5591753755289047,1.9157566814849732e-07
IT1,3,6,710,84.50704225352112,2,-19,False,,,31.580629700998873,50.0,1005.4699999745935,18.419370299001127,False,0,1,54,6,0,0,42.0,0.6025996705917632,47.221933994409035,23.070546935054114,11.276964945535909,48.88035371368389,0.004006987943877328
IT1,3,3,463,129.58963282937364,4,-13,False,,,62.42097125758927,50.0,4606.330000038724,-12.420971257589272,False,0,1,55,6,0,0,42.0,0.6025996705917632,47.221933994409035,23.070546935054114,-2.953106001952463,-12.800329399496901,0.0002172622009388737
IT1,3,4,652,92.02453987730061,2,-16,False,,,37.727982709047225,50.0,2045.2199999708682,12.272017290952775,False,0,1,56,6,0,0,42.0,0.6025996705917632,47.221933994409035,23.070546935054114,8.440509023565397,36.585647697587184,0.0018336224776416437
IT1,3,3,358,167.5977653631285,5,-13,False,,,80.97360155738828,72.0,5533.69000001112,-8.973601557388278,False,0,1,57,6,0,0,42.0,0.6025996705917632,47.221933994409035,23.070546935054114,10.486507436043134,45.454091164651174,0.004764839571141836
IT1,3,6,599,100.1669449081803,3,-19,False,,,43.84378078116181,50.0,14907.904999970924,6.156219218838189,False,0,1,58,6,0,0,42.0,0.6025996705917632,47.221933994409035,23.070546935054114,5.6186128942047375,24.35405155335802,0.0007061332618990349
IT1,3,5,358,167.5977653631285,5,-19,False,,,80.97360155738828,50.0,5016.379999986384,-30.973601557388278,False,0,1,59,6,0,0,42.0,0.6025996705917632,47.221933994409035,23.070546935054114,-11.513492563956866,-49.90558999909492,0.006656089298085647
IT1,3,3,1000,60.0,1,-16,False,,,6.875176187496734,32.0,7216.7999999946915,25.124823812503266,False,0,1,60,6,0,0,42.0,0.6025996705917632,47.221933994409035,23.070546935054114,4.676331442236883,20.269703424895912,0.002325684417672314
IT1,3,5,599,100.1669449081803,3,-13,False,,,43.84378078116181,50.0,5200.870000000577,6.156219218838189,False,0,2,61,6,0,0,42.0,0.6025996705917632,47.221933994409035,23.070546935054114,5.6186128942047375,24.35405155335802,0.0007061332618990349
IT1,3,2,358,167.5977653631285,5,-13,False,,,80.97360155738828,82.0,3339.3250000081025,1.0263984426117219,False,0,2,62,6,0,0,42.0,0.6025996705917632,47.221933994409035,23.070546935054114,20.486507436043134,88.79940078453575,0.018902984526127015
IT1,3,5,652,92.02453987730061,2,-16,False,,,37.727982709047225,50.0,10236.124999995809,12.272017290952775,False,0,2,63,6,0,0,42.0,0.6025996705917632,47.221933994409035,23.070546935054114,8.440509023565397,36.585647697587184,0.0018336224776416437
IT1,3,4,358,167.5977653631285,5,-13,False,,,80.97360155738828,50.0,4109.799999976531,-30.973601557388278,False,0,2,64,6,0,0,42.0,0.6025996705917632,47.221933994409035,23.070546935054114,-11.513492563956866,-49.90558999909492,0.006656089298085647
IT1,3,2,504,119.04761904761905,3,-19,False,,,56.30039424560527,32.0,12760.94499998726,-24.30039424560527,False,0,2,65,6,0,0,42.0,0.6025996705917632,47.221933994409035,23.070546935054114,-18.12900481746066,-78.58073269132116,0.006709876914445392
IT1,3,3,329,182.370820668693,5,-19,False,,,87.06720173383901,35.0,8130.245000007562,-52.06720173383901,False,0,2,66,6,0,0,42.0,0.6025996705917632,47.221933994409035,23.070546935054114,-29.32514634144208,-127.11075478182326,0.0527815858798867
IT1,3,7,1000,60.0,1,-13,False,,,6.875176187496734,3.0,2946.0099999560043,-3.8751761874967343,False,0,2,67,6,0,0,42.0,0.6025996705917632,47.221933994409035,23.070546935054114,-24.323668557763117,-105.4316944727694,0.040935087841473386
IT1,3,6,358,167.5977653631285,5,-13,False,,,80.97360155738828,83.0,4051.6499999794178,2.026398442611722,False,0,2,68,6,0,0,42.0,0.6025996705917632,47.221933994409035,23.070546935054114,21.486507436043134,93.13393174652421,0.02083234853143665
IT1,3,7,599,100.1669449081803,3,-19,False,,,43.84378078116181,70.0,9546.235000016168,26.15621921883819,False,0,2,69,6,0,0,42.0,0.6025996705917632,47.221933994409035,23.070546935054114,25.618612894204738,111.04467079312718,0.013711622455354159
IT1,3,5,329,182.370820668693,5,-13,False,,,87.06720173383901,90.0,6358.074999996461,2.9327982661609866,False,0,2,70,6,0,0,42.0,0.6025996705917632,47.221933994409035,23.070546935054114,25.67485365855792,111.28844812754197,0.037543436100454484
IT1,3,4,504,119.04761904761905,3,-16,False,,,56.30039424560527,62.0,10028.330000001006,5.699605754394732,False,0,2,71,6,0,0,42.0,0.6025996705917632,47.221933994409035,23.070546935054114,11.870995182539339,51.4551961683326,0.002903025981072914
IT1,3,7,463,129.58963282937364,4,-19,False,,,62.42097125758927,62.0,9996.245000045747,-0.42097125758927234,False,0,2,72,6,0,0,42.0,0.6025996705917632,47.221933994409035,23.070546935054114,9.046893998047537,39.214042144364605,0.0019058662269537962
IT1,3,2,652,92.02453987730061,2,-16,False,,,37.727982709047225,31.0,3919.0200000302866,-6.727982709047225,False,0,2,73,6,0,0,42.0,0.6025996705917632,47.221933994409035,23.070546935054114,-10.559490976434603,-45.77044058019353,0.0024624669832006094
IT1,3,7,358,167.5977653631285,5,-16,False,,,80.97360155738828,50.0,6523.545000003651,-30.973601557388278,False,0,2,74,6,0,0,42.0,0.6025996705917632,47.221933994409035,23.070546935054114,-11.513492563956866,-49.90558999909492,0.006656089298085647
IT1,3,3,774,77.51937984496124,2,-16,False,,,25.354902613380577,50.0,3632.704999996349,24.645097386619423,False,0,2,75,6,0,0,42.0,0.6025996705917632,47.221933994409035,23.070546935054114,14.149583525130623,61.33180788892049,0.007977614975081374
IT1,3,4,918,65.359477124183,1,-13,False,,,13.046873249910696,50.0,2444.764999963809,36.953126750089304,False,0,2,76,6,0,0,42.0,0.6025996705917632,47.221933994409035,23.070546935054114,19.828642907289744,85.94786661586025,0.025244087249925953
IT1,3,3,550,109.0909090909091,3,-19,False,,,50.0,50.0,8385.59499999974,0.0,False,0,2,77,6,0,0,42.0,0.6025996705917632,47.221933994409035,23.070546935054114,2.778066005590965,12.04161311568164,0.0001656385291643905
IT1,3,2,390,153.84615384615384,4,-13,False,,,74.79787473312055,75.0,2712.225000024773,0.20212526687944887,False,0,2,78,6,0,0,42.0,0.6025996705917632,47.221933994409035,23.070546935054114,16.336055347189955,70.80913769915198,0.00946912246428337
IT1,3,6,504,119.04761904761905,3,-13,False,,,56.30039424560527,50.0,2449.209999991581,-6.300394245605268,False,0,2,79,6,0,0,42.0,0.6025996705917632,47.221933994409035,23.070546935054114,-0.12900481746066106,-0.5591753755289047,1.9157566814849732e-07
IT1,3,2,843,71.17437722419929,1,-13,False,,,19.194949373496982,34.0,2738.520000013523,14.805050626503018,False,0,2,80,6,0,0,42.0,0.6025996705917632,47.221933994409035,23.070546935054114,0.9918533319000886,4.29921897687235,0.00013207475317149697
IT1,3,4,390,153.84615384615384,4,-19,False,,,74.79787473312055,32.0,7035.759999998845,-42.79787473312055,False,0,2,81,6,0,0,42.0,0.6025996705917632,47.221933994409035,23.070546935054114,-26.663944652810045,-115.57569366635174,0.0267427751722542
IT1,3,3,843,71.17437722419929,1,-19,False,,,19.194949373496982,30.0,7077.20999995945,10.805050626503018,False,0,2,82,6,0,0,42.0,0.6025996705917632,47.221933994409035,23.070546935054114,-3.0081466680999114,-13.038904871081487,0.0002520101486515659
IT1,3,6,425,141.1764705882353,4,-19,False,,,68.5984388693479,50.0,5945.475000014994,-18.598438869347902,False,0,2,83,6,0,0,42.0,0.6025996705917632,47.221933994409035,23.070546935054114,-5.8034571314895445,-25.155264623014155,0.0010431026630215484
IT1,3,4,774,77.51937984496124,2,-19,False,,,25.354902613380577,50.0,5101.115000026766,24.645097386619423,False,0,2,84,6,0,0,42.0,0.6025996705917632,47.221933994409035,23.070546935054114,14.149583525130623,61.33180788892049,0.007977614975081374
IT1,3,6,843,71.17437722419929,1,-19,False,,,19.194949373496982,31.0,12808.839999954216,11.805050626503018,False,0,2,85,6,0,0,42.0,0.6025996705917632,47.221933994409035,23.070546935054114,-2.0081466680999114,-8.704373909093027,8.159556097539704e-05
IT1,3,5,463,129.58963282937364,4,-16,False,,,62.42097125758927,20.0,8839.249999960884,-42.42097125758927,False,0,2,86,6,0,0,42.0,0.6025996705917632,47.221933994409035,23.070546935054114,-32.95310600195246,-142.83625825915067,0.025834109925270538
IT1,3,7,710,84.50704225352112,2,-16,False,,,31.580629700998873,27.0,2851.139999984298,-4.580629700998873,False,0,2,87,6,0,0,42.0,0.6025996705917632,47.221933994409035,23.070546935054114,-11.723035054464091,-50.813858412050664,0.003678321056858972
IT1,3,3,390,153.84615384615384,4,-19,False,,,74.79787473312055,78.0,4263.870000024326,3.202125266879449,False,0,2,88,6,0,0,42.0,0.6025996705917632,47.221933994409035,23.070546935054114,19.336055347189955,83.81273058511735,0.013342021199799594
IT1,3,6,652,92.02453987730061,2,-13,False,,,37.727982709047225,30.0,2220.4050000291318,-7.727982709047225,False,0,2,89,6,0,0,42.0,0.6025996705917632,47.221933994409035,23.070546935054114,-11.559490976434603,-50.104971542181985,0.002969021449612334
IT1,3,5,843,71.17437722419929,1,-16,False,,,19.194949373496982,18.0,2245.7600000198,-1.194949373496982,False,0,2,90,6,0,0,42.0,0.6025996705917632,47.221933994409035,23.070546935054114,-15.008146668099911,-65.053276414943,0.009599383618685474
IT1,4,6,550,109.0909090909091,3,-16,False,,,50.0,38.0,2763.7799996882677,-12.0,False,0,0,1,6,0,0,23.0,0.6166749618264266,51.89402012649511,26.150455243075896,-13.894020126495107,-53.1310831775059,0.003988195577132301
IT1,4,7,425,141.1764705882353,4,-16,False,,,68.5984388693479,18.0,4197.110000066459,-50.5984388693479,False,0,0,2,6,0,0,23.0,0.6166749618264266,51.89402012649511,26.150455243075896,-43.62117299137441,-166.80846503780998,0.059446917547599204
IT1,4,4,302,198.67549668874173,5,-16,False,,,93.24415345434716,89.0,4537.150000222027,-4.244153454347156,False,0,0,3,6,0,0,23.0,0.6166749618264266,51.89402012649511,26.150455243075896,14.488893884852672,55.40589542390102,0.02784840925009022
IT1,4,6,463,129.58963282937364,4,-16,False,,,62.42097125758927,65.0,1964.4800000824034,2.5790287424107277,False,0,0,4,6,0,0,23.0,0.6166749618264266,51.89402012649511,26.150455243075896,6.609698814562485,25.275654871486786,0.0017873767040993242
IT1,4,2,918,65.359477124183,1,-16,False,,,13.046873249910696,11.0,2902.2400001995265,-2.0468732499106963,False,0,0,5,6,0,0,23.0,0.6166749618264266,51.89402012649511,26.150455243075896,-21.567198383096688,-82.47351024149853,0.03758876531662651
IT1,4,6,652,92.02453987730061,2,-19,False,,,37.727982709047225,12.0,1886.1400000751019,-25.727982709047225,False,0,0,6,6,0,0,23.0,0.6166749618264266,51.89402012649511,26.150455243075896,-33.47564334830882,-128.01170395369115,0.03128507595527149
IT1,4,4,425,141.1764705882353,4,-16,False,,,68.5984388693479,65.0,3135.1050003431737,-3.598438869347902,False,0,0,7,6,0,0,23.0,0.6166749618264266,51.89402012649511,26.150455243075896,3.378827008625592,12.920719647969555,0.000917867942435116
IT1,4,6,1000,60.0,1,-19,False,,,6.875176187496734,12.0,2614.684999920428,5.124823812503266,False,0,0,8,6,0,0,23.0,0.6166749618264266,51.89402012649511,26.150455243075896,-17.3393446270071,-66.30609091059019,0.032977514866859854
IT1,4,2,652,92.02453987730061,2,-19,False,,,37.727982709047225,18.0,2704.6550000086427,-19.727982709047225,False,0,0,9,6,0,0,23.0,0.6166749618264266,51.89402012649511,26.150455243075896,-27.47564334830882,-105.06755271720864,0.021114129482742154
IT1,4,7,843,71.17437722419929,1,-19,False,,,19.194949373496982,12.0,2435.8950001187623,-7.194949373496982,False,0,0,10,6,0,0,23.0,0.6166749618264266,51.89402012649511,26.150455243075896,-23.78269817311402,-90.94563728259068,0.03448486615324066
IT1,4,3,710,84.50704225352112,2,-13,False,,,31.580629700998873,21.0,2205.7150001637638,-10.580629700998873,False,0,0,11,6,0,0,23.0,0.6166749618264266,51.89402012649511,26.150455243075896,-21.2605217543017,-81.30077108287072,0.016128272900368983
IT1,4,2,599,100.1669449081803,3,-16,False,,,43.84378078116181,41.0,3930.685000028461,-2.8437807811618114,False,0,0,12,6,0,0,23.0,0.6166749618264266,51.89402012649511,26.150455243075896,-7.674261423519276,-29.346569121588285,0.0013218149222380764
IT1,4,5,1000,60.0,1,-19,False,,,6.875176187496734,50.0,1422.479999717325,43.124823812503266,False,0,0,13,6,0,0,23.0,0.6166749618264266,51.89402012649511,26.150455243075896,20.6606553729929,79.00686692046563,0.030077938571405546
IT1,4,4,550,109.0909090909091,3,-13,False,,,50.0,73.0,1848.1050003319979,23.0,False,0,0,14,6,0,0,23.0,0.6166749618264266,51.89402012649511,26.150455243075896,21.105979873504893,80.70979903530866,0.010727047527164123
IT1,4,5,390,153.84615384615384,4,-16,False,,,74.79787473312055,83.0,1920.8599999547005,8.202125266879449,False,0,0,15,6,0,0,23.0,0.6166749618264266,51.89402012649511,26.150455243075896,18.13646560686746,69.35430162987171,0.017811996234046328
IT1,4,4,843,71.17437722419929,1,-19,False,,,19.194949373496982,76.0,2794.3149995990098,56.80505062650302,False,0,0,16,6,0,0,23.0,0.6166749618264266,51.89402012649511,26.150455243075896,40.21730182688598,153.79197590655596,0.0828361905201186
IT1,4,5,358,167.5977653631285,5,-13,False,,,80.97360155738828,88.0,3531.3799995929003,7.026398442611722,False,0,0,17,6,0,0,23.0,0.6166749618264266,51.89402012649511,26.150455243075896,19.90650424863793,76.12297401173834,0.027763664788424666
IT1,4,3,550,109.0909090909091,3,-16,False,,,50.0,78.0,2416.8050000444055,28.0,False,0,0,18,6,0,0,23.0,0.6166749618264266,51.89402012649511,26.150455243075896,26.105979873504893,99.82992506571074,0.016227988252608946
IT1,4,5,710,84.50704225352112,2,-13,False,,,31.580629700998873,68.0,3286.3349998369813,36.41937029900113,False,0,0,19,6,0,0,23.0,0.6166749618264266,51.89402012649511,26.150455243075896,25.7394782456983,98.42841360290883,0.021581653448439764
IT1,4,3,329,182.370820668693,5,-13,False,,,87.06720173383901,70.0,2244.7700002230704,-17.067201733839013,False,0,0,20,6,0,0,23.0,0.6166749618264266,51.89402012649511,26.150455243075896,-1.2805041250315554,-4.896680050610616,0.00020187700223467885
IT1,4,7,504,119.04761904761905,3,-19,False,,,56.30039424560527,69.0,2394.429999869317,12.699605754394732,False,0,0,21,6,0,0,23.0,0.6166749618264266,51.89402012649511,26.150455243075896,13.810816318836224,52.81290971977647,0.005281427443509851
IT1,4,6,302,198.67549668874173,5,-13,False,,,93.24415345434716,78.0,2676.0050002485514,-15.244153454347156,False,0,0,22,6,0,0,23.0,0.6166749618264266,51.89402012649511,26.150455243075896,3.488893884852672,13.341618157016445,0.004113976616460296
IT1,4,3,843,71.17437722419929,1,-16,False,,,19.194949373496982,9.0,2177.059999667108,-10.194949373496982,False,0,0,23,6,0,0,23.0,0.6166749618264266,51.89402012649511,26.150455243075896,-26.78269817311402,-102.41771290083193,0.043221150700439755
IT1,4,7,302,198.67549668874173,5,-19,False,,,93.24415345434716,65.0,3420.384999830276,-28.244153454347156,False,0,0,24,6,0,0,23.0,0.6166749618264266,51.89402012649511,26.150455243075896,-9.511106115147328,-36.37070952202897,0.0032807132540428035
IT1,4,3,425,141.1764705882353,4,-16,False,,,68.5984388693479,62.0,3820.9849996492267,-6.598438869347902,False,0,0,25,6,0,0,23.0,0.6166749618264266,51.89402012649511,26.150455243075896,0.37882700862559204,1.4486440297283072,0.00016383270319332604
IT1,4,4,710,84.50704225352112,2,-16,False,,,31.580629700998873,44.0,2777.0850001834333,12.419370299001127,False,0,0,26,6,0,0,23.0,0.6166749618264266,51.89402012649511,26.150455243075896,1.739478245698301,6.6518086569788455,4.9576181287034336e-05
IT1,4,2,425,141.1764705882353,4,-13,False,,,68.5984388693479,73.0,2220.0949997641146,4.401561130652098,False,0,0,27,6,0,0,23.0,0.6166749618264266,51.89402012649511,26.150455243075896,11.378827008625592,43.51292129661288,0.005921916595446647
IT1,4,5,550,109.0909090909091,3,-19,False,,,50.0,56.0,5009.370000101626,6.0,False,0,0,28,6,0,0,23.0,0.6166749618264266,51.89402012649511,26.150455243075896,4.105979873504893,15.701370531941588,0.0005103720534393335
IT1,4,2,302,198.67549668874173,5,-13,False,,,93.24415345434716,89.0,3629.2900000698864,-4.244153454347156,False,0,0,29,6,0,0,23.0,0.6166749618264266,51.89402012649511,26.150455243075896,14.488893884852672,55.40589542390102,0.02784840925009022
IT1,4,7,774,77.51937984496124,2,-13,False,,,25.354902613380577,60.0,4905.6000001728535,34.645097386619426,False,0,0,30,6,0,0,23.0,0.6166749618264266,51.89402012649511,26.150455243075896,20.995590196905653,80.2876661295021,0.0173216237284616
IT1,4,5,599,100.1669449081803,3,-16,False,,,43.84378078116181,50.0,1240.1050003245473,6.156219218838189,False,0,1,31,6,0,0,23.0,0.6166749618264266,51.89402012649511,26.150455243075896,1.325738576480724,5.0696577331354575,5.9201319193106385e-05
IT1,4,6,329,182.370820668693,5,-19,False,,,87.06720173383901,64.0,2021.0750000551343,-23.067201733839013,False,0,1,32,6,0,0,23.0,0.6166749618264266,51.89402012649511,26.150455243075896,-7.280504125031555,-27.840831287093117,0.0012782266400454844
IT1,4,7,710,84.50704225352112,2,-19,False,,,31.580629700998873,36.0,3434.510000050068,4.419370299001127,False,0,1,33,6,0,0,23.0,0.6166749618264266,51.89402012649511,26.150455243075896,-6.260521754301699,-23.94039299166448,0.0015666506256555967
IT1,4,6,599,100.1669449081803,3,-13,False,,,43.84378078116181,69.0,2590.3449999168515,25.15621921883819,False,0,1,34,6,0,0,23.0,0.6166749618264266,51.89402012649511,26.150455243075896,20.325738576480724,77.72613664866336,0.010138641308677152
IT1,4,4,1000,60.0,1,-16,False,,,6.875176187496734,41.0,14227.634999901056,34.124823812503266,False,0,1,35,6,0,0,23.0,0.6166749618264266,51.89402012649511,26.150455243075896,11.660655372992899,44.59064006574188,0.00798245236278727
IT1,4,6,710,84.50704225352112,2,-16,False,,,31.580629700998873,38.0,4810.575000010431,6.419370299001127,False,0,1,36,6,0,0,23.0,0.6166749618264266,51.89402012649511,26.150455243075896,-4.260521754301699,-16.29234257950365,0.0007798304426844185
IT1,4,7,390,153.84615384615384,4,-13,False,,,74.79787473312055,62.0,3258.739999961108,-12.797874733120551,False,0,1,37,6,0,0,23.0,0.6166749618264266,51.89402012649511,26.150455243075896,-2.8635343931325394,-10.950227697817018,1.8440202622047304e-05
IT1,4,2,843,71.17437722419929,1,-13,False,,,19.194949373496982,23.0,2938.9349999837577,3.805050626503018,False,0,1,38,6,0,0,23.0,0.6166749618264266,51.89402012649511,26.150455243075896,-12.78269817311402,-48.8813600157061,0.010881792679391558
IT1,4,3,599,100.1669449081803,3,-19,False,,,43.84378078116181,50.0,1975.205000024289,6.156219218838189,False,0,1,39,6,0,0,23.0,0.6166749618264266,51.89402012649511,26.150455243075896,1.325738576480724,5.0696577331354575,5.9201319193106385e-05
IT1,4,5,918,65.359477124183,1,-13,False,,,13.046873249910696,50.0,1916.0199998877943,36.953126750089304,False,0,1,40,6,0,0,23.0,0.6166749618264266,51.89402012649511,26.150455243075896,17.432801616903312,66.6634727956377,0.017162780628337877
IT1,4,4,652,92.02453987730061,2,-13,False,,,37.727982709047225,50.0,2069.0750000067055,12.272017290952775,False,0,1,41,6,0,0,23.0,0.6166749618264266,51.89402012649511,26.150455243075896,4.524356651691178,17.30125387736466,0.0005317742680525967
IT1,4,7,550,109.0909090909091,3,-13,False,,,50.0,50.0,1509.2400000430644,0.0,False,0,1,42,6,0,0,23.0,0.6166749618264266,51.89402012649511,26.150455243075896,-1.894020126495107,-7.242780704540907,3.58774290356327e-05
IT1,4,4,358,167.5977653631285,5,-19,False,,,80.97360155738828,60.0,3753.7249997258186,-20.973601557388278,False,0,1,43,6,0,0,23.0,0.6166749618264266,51.89402012649511,26.150455243075896,-8.09349575136207,-30.94973175851331,0.0016537250604232495
IT1,4,2,390,153.84615384615384,4,-16,False,,,74.79787473312055,64.0,2107.599999755621,-10.797874733120551,False,0,1,44,6,0,0,23.0,0.6166749618264266,51.89402012649511,26.150455243075896,-0.8635343931325394,-3.302177285656186,7.788757871015951e-05
IT1,4,3,302,198.67549668874173,5,-19,False,,,93.24415345434716,79.0,9916.749999858439,-14.244153454347156,False,0,1,45,6,0,0,23.0,0.6166749618264266,51.89402012649511,26.150455243075896,4.488893884852672,17.16564336309686,0.005399327930325846
IT1,4,4,599,100.1669449081803,3,-16,False,,,43.84378078116181,47.0,3012.7449999563396,3.1562192188381886,False,0,1,46,6,0,0,23.0,0.6166749618264266,51.89402012649511,26.150455243075896,-1.674261423519276,-6.40241788510579,4.8852150421589565e-05
IT1,4,5,425,141.1764705882353,4,-13,False,,,68.5984388693479,50.0,2264.685000292957,-18.598438869347902,False,0,1,47,6,0,0,23.0,0.6166749618264266,51.89402012649511,26.150455243075896,-11.621172991374408,-44.43965844323669,0.003270326322430895
IT1,4,2,504,119.04761904761905,3,-13,False,,,56.30039424560527,50.0,2223.964999895543,-6.300394245605268,False,0,1,48,6,0,0,23.0,0.6166749618264266,51.89402012649511,26.150455243075896,-5.189183681163776,-19.84356919575144,0.0004132635234602594
IT1,4,3,463,129.58963282937364,4,-13,False,,,62.42097125758927,81.0,4034.460000228137,18.579028742410728,False,0,1,49,6,0,0,23.0,0.6166749618264266,51.89402012649511,26.150455243075896,22.609698814562485,86.46005816877344,0.01599614784546631
IT1,4,5,302,198.67549668874173,5,-19,False,,,93.24415345434716,84.0,2643.894999753684,-9.244153454347156,False,0,1,50,6,0,0,23.0,0.6166749618264266,51.89402012649511,26.150455243075896,9.488893884852672,36.28576939349894,0.014443057639956014
IT1,4,6,425,141.1764705882353,4,-19,False,,,68.5984388693479,50.0,1716.1399996839464,-18.598438869347902,False,0,1,51,6,0,0,23.0,0.6166749618264266,51.89402012649511,26.150455243075896,-11.621172991374408,-44.43965844323669,0.003270326322430895
IT1,4,7,358,167.5977653631285,5,-13,False,,,80.97360155738828,72.0,2885.9049999155104,-8.973601557388278,False,0,1,52,6,0,0,23.0,0.6166749618264266,51.89402012649511,26.150455243075896,3.9065042486379298,14.938570714451679,0.0023206089285207304
IT1,4,6,918,65.359477124183,1,-13,False,,,13.046873249910696,30.0,2492.5800003111362,16.953126750089304,False,0,1,53,6,0,0,23.0,0.6166749618264266,51.89402012649511,26.150455243075896,-2.567198383096688,-9.817031325970623,0.001267424504195119
IT1,4,3,652,92.02453987730061,2,-16,False,,,37.727982709047225,25.0,2692.9600001312792,-12.727982709047225,False,0,1,54,6,0,0,23.0,0.6166749618264266,51.89402012649511,26.150455243075896,-20.47564334830882,-78.29937627464574,0.01176719058562253
IT1,4,7,1000,60.0,1,-16,False,,,6.875176187496734,36.0,3790.255000349134,29.124823812503266,False,0,1,55,6,0,0,23.0,0.6166749618264266,51.89402012649511,26.150455243075896,6.660655372992899,25.470514035339804,0.0018173583288665326
IT1,4,5,774,77.51937984496124,2,-19,False,,,25.354902613380577,50.0,2269.8300001211464,24.645097386619423,False,0,1,56,6,0,0,23.0,0.6166749618264266,51.89402012649511,26.150455243075896,10.995590196905653,42.04741406869794,0.004360476066293155
IT1,4,3,1000,60.0,1,-13,False,,,6.875176187496734,43.0,3492.214999627322,36.124823812503266,False,0,1,57,6,0,0,23.0,0.6166749618264266,51.89402012649511,26.150455243075896,13.660655372992899,52.238690477902715,0.011670525192751226
IT1,4,2,710,84.50704225352112,2,-16,False,,,31.580629700998873,50.0,1173.7899999134243,18.419370299001127,False,0,1,58,6,0,0,23.0,0.6166749618264266,51.89402012649511,26.150455243075896,7.739478245698301,29.595959893461345,0.001764631351163877
IT1,4,4,390,153.84615384615384,4,-19,False,,,74.79787473312055,65.0,3578.220000024885,-9.797874733120551,False,0,1,59,6,0,0,23.0,0.6166749618264266,51.89402012649511,26.150455243075896,0.13646560686746056,0.5218479204242299,0.00023670418842714117
IT1,4,2,358,167.5977653631285,5,-19,False,,,80.97360155738828,57.0,6073.399999644607,-23.973601557388278,False,0,1,60,6,0,0,23.0,0.6166749618264266,51.89402012649511,26.150455243075896,-11.09349575136207,-42.42180737675456,0.003953353382706532
IT1,4,7,652,92.02453987730061,2,-16,False,,,37.727982709047225,46.0,4660.979999694973,8.272017290952775,False,0,2,61,6,0,0,23.0,0.6166749618264266,51.89402012649511,26.150455243075896,0.5243566516911784,2.0051530530429953,4.057505788770094e-06
IT1,4,6,390,153.84615384615384,4,-13,False,,,74.79787473312055,60.0,2710.1650000549853,-14.797874733120551,False,0,2,62,6,0,0,23.0,0.6166749618264266,51.89402012649511,26.150455243075896,-4.863534393132539,-18.59827810997785,0.00030324061766173657
IT1,4,2,550,109.0909090909091,3,-19,False,,,50.0,50.0,2955.689999740571,0.0,False,0,2,63,6,0,0,23.0,0.6166749618264266,51.89402012649511,26.150455243075896,-1.894020126495107,-7.242780704540907,3.58774290356327e-05
IT1,4,4,774,77.51937984496124,2,-19,False,,,25.354902613380577,50.0,3325.4399998113513,24.645097386619423,False,0,2,64,6,0,0,23.0,0.6166749618264266,51.89402012649511,26.150455243075896,10.995590196905653,42.04741406869794,0.004360476066293155
IT1,4,5,504,119.04761904761905,3,-13,False,,,56.30039424560527,50.0,1296.5299999341369,-6.300394245605268,False,0,2,65,6,0,0,23.0,0.6166749618264266,51.89402012649511,26.150455243075896,-5.189183681163776,-19.84356919575144,0.0004132635234602594
IT1,4,4,918,65.359477124183,1,-13,False,,,13.046873249910696,50.0,1645.7599997520447,36.953126750089304,False,0,2,66,6,0,0,23.0,0.6166749618264266,51.89402012649511,26.150455243075896,17.432801616903312,66.6634727956377,0.017162780628337877
IT1,4,5,329,182.370820668693,5,-16,False,,,87.06720173383901,59.0,3748.575000092387,-28.067201733839013,False,0,2,67,6,0,0,23.0,0.6166749618264266,51.89402012649511,26.150455243075896,-12.280504125031555,-46.96095731749519,0.005988617888416082
IT1,4,3,390,153.84615384615384,4,-19,False,,,74.79787473312055,54.0,11631.100000347942,-20.79787473312055,False,0,2,68,6,0,0,23.0,0.6166749618264266,51.89402012649511,26.150455243075896,-10.86353439313254,-41.542429346460345,0.003223128609547614
IT1,4,6,504,119.04761904761905,3,-19,False,,,56.30039424560527,53.0,2863.3549995720387,-3.3003942456052684,False,0,2,69,6,0,0,23.0,0.6166749618264266,51.89402012649511,26.150455243075896,-2.189183681163776,-8.371493577510192,3.185821351004547e-05
IT1,4,2,463,129.58963282937364,4,-19,False,,,62.42097125758927,55.0,4400.280000176281,-7.420971257589272,False,0,2,70,6,0,0,23.0,0.6166749618264266,51.89402012649511,26.150455243075896,-3.390301185437515,-12.964597189317374,0.00010705388138220854
IT1,4,7,918,65.359477124183,1,-13,False,,,13.046873249910696,50.0,1784.684999845922,36.953126750089304,False,0,2,71,6,0,0,23.0,0.6166749618264266,51.89402012649511,26.150455243075896,17.432801616903312,66.6634727956377,0.017162780628337877
IT1,4,2,329,182.370820668693,5,-16,False,,,87.06720173383901,64.0,3395.0700000859797,-23.067201733839013,False,0,2,72,6,0,0,23.0,0.6166749618264266,51.89402012649511,26.150455243075896,-7.280504125031555,-27.840831287093117,0.0012782266400454844
IT1,4,6,843,71.17437722419929,1,-16,False,,,19.194949373496982,45.0,3216.200000140816,25.805050626503018,False,0,2,73,6,0,0,23.0,0.6166749618264266,51.89402012649511,26.150455243075896,9.21730182688598,35.247194518063054,0.0034169322422747204
IT1,4,3,358,167.5977653631285,5,-16,False,,,80.97360155738828,61.0,2705.330000258982,-19.973601557388278,False,0,2,74,6,0,0,23.0,0.6166749618264266,51.89402012649511,26.150455243075896,-7.09349575136207,-27.125706552432895,0.0011064133342672798
IT1,4,5,652,92.02453987730061,2,-16,False,,,37.727982709047225,50.0,1875.9400001727045,12.272017290952775,False,0,2,75,6,0,0,23.0,0.6166749618264266,51.89402012649511,26.150455243075896,4.524356651691178,17.30125387736466,0.0005317742680525967
IT1,4,6,358,167.5977653631285,5,-16,False,,,80.97360155738828,59.0,3117.2650000080466,-21.973601557388278,False,0,2,76,6,0,0,23.0,0.6166749618264266,51.89402012649511,26.150455243075896,-9.09349575136207,-34.77375696459373,0.0023106523105484475
IT1,4,7,599,100.1669449081803,3,-16,False,,,43.84378078116181,50.0,3379.2849997989833,6.156219218838189,False,0,2,77,6,0,0,23.0,0.6166749618264266,51.89402012649511,26.150455243075896,1.325738576480724,5.0696577331354575,5.9201319193106385e-05
IT1,4,3,918,65.359477124183,1,-19,False,,,13.046873249910696,50.0,1387.2799999080598,36.953126750089304,False,0,2,78,6,0,0,23.0,0.6166749618264266,51.89402012649511,26.150455243075896,17.432801616903312,66.6634727956377,0.017162780628337877
IT1,4,4,504,119.04761904761905,3,-19,False,,,56.30039424560527,50.0,1000.50999969244,-6.300394245605268,False,0,2,79,6,0,0,23.0,0.6166749618264266,51.89402012649511,26.150455243075896,-5.189183681163776,-19.84356919575144,0.0004132635234602594
IT1,4,5,463,129.58963282937364,4,-19,False,,,62.42097125758927,50.0,998.7200000323355,-12.420971257589272,False,0,2,80,6,0,0,23.0,0.6166749618264266,51.89402012649511,26.150455243075896,-8.390301185437515,-32.08472321971945,0.0013438614528997815
IT1,4,2,1000,60.0,1,-19,False,,,6.875176187496734,19.0,3369.5399998687208,12.124823812503266,False,0,2,81,6,0,0,23.0,0.6166749618264266,51.89402012649511,26.150455243075896,-10.339344627007101,-39.537914468027274,0.013501836537248681
IT1,4,3,504,119.04761904761905,3,-13,False,,,56.30039424560527,71.0,2228.6649998277426,14.699605754394732,False,0,2,82,6,0,0,23.0,0.6166749618264266,51.89402012649511,26.150455243075896,15.810816318836224,60.46096013193729,0.006800170675517831
IT1,4,4,463,129.58963282937364,4,-13,False,,,62.42097125758927,66.0,3445.07999997586,3.5790287424107277,False,0,2,83,6,0,0,23.0,0.6166749618264266,51.89402012649511,26.150455243075896,7.609698814562485,29.099680077567204,0.0022600311038595347
IT1,4,3,774,77.51937984496124,2,-19,False,,,25.354902613380577,17.0,1857.2149998508394,-8.354902613380577,False,0,2,84,6,0,0,23.0,0.6166749618264266,51.89402012649511,26.150455243075896,-22.004409803094347,-84.14541773195579,0.022611930108106686
IT1,4,7,329,182.370820668693,5,-16,False,,,87.06720173383901,17.0,3086.769999936223,-70.06720173383901,False,0,2,85,6,0,0,23.0,0.6166749618264266,51.89402012649511,26.150455243075896,-54.280504125031555,-207.57001597287265,0.18242348928536156
IT1,4,2,774,77.51937984496124,2,-13,False,,,25.354902613380577,11.0,2020.6699999980628,-14.354902613380577,False,0,2,86,6,0,0,23.0,0.6166749618264266,51.89402012649511,26.150455243075896,-28.004409803094347,-107.08956896843829,0.03599340552269352
IT1,4,5,843,71.17437722419929,1,-16,False,,,19.194949373496982,24.0,2943.334999959916,4.805050626503018,False,0,2,87,6,0,0,23.0,0.6166749618264266,51.89402012649511,26.150455243075896,-11.78269817311402,-45.05733480962568,0.009392939495993399
IT1,4,7,463,129.58963282937364,4,-19,False,,,62.42097125758927,50.0,1910.3500000201166,-12.420971257589272,False,0,2,88,6,0,0,23.0,0.6166749618264266,51.89402012649511,26.150455243075896,-8.390301185437515,-32.08472321971945,0.0013438614528997815
IT1,4,6,774,77.51937984496124,2,-13,False,,,25.354902613380577,50.0,3953.999999910593,24.645097386619423,False,0,2,89,6,0,0,23.0,0.6166749618264266,51.89402012649511,26.150455243075896,10.995590196905653,42.04741406869794,0.004360476066293155
IT1,4,4,329,182.370820668693,5,-13,False,,,87.06720173383901,66.0,3056.570000015199,-21.067201733839013,False,0,2,90,6,0,0,23.0,0.6166749618264266,51.89402012649511,26.150455243075896,-5.280504125031555,-20.192780874932282,0.00036476223226201455
IT1,8,4,425,141.1764705882353,4,-19,False,,,68.5984388693479,100.0,1505.170000018552,31.401561130652098,False,0,0,1,6,0,0,42.0,0.9272330846770025,46.367057599264896,57.77717626758947,32.14163678360909,55.630335125323825,0.05460669799350572
IT1,8,3,329,182.370820668693,5,-13,False,,,87.06720173383901,100.0,1505.0200000405312,12.932798266160987,False,0,0,2,6,0,0,42.0,0.9272330846770025,46.367057599264896,57.77717626758947,10.800177434288798,18.692809396341577,0.012149965405887598
IT1,8,7,1000,60.0,1,-16,False,,,6.875176187496734,0.0,1785.0350000080653,-6.875176187496734,False,0,0,3,6,0,0,42.0,0.9272330846770025,46.367057599264896,57.77717626758947,3.4655533392099187,5.998135532203131,0.0003324234415100691
IT1,8,3,504,119.04761904761905,3,-13,False,,,56.30039424560527,50.0,332.4150000116788,-6.300394245605268,False,0,0,4,6,0,0,42.0,0.9272330846770025,46.367057599264896,57.77717626758947,-3.647437376937731,-6.312938105602416,0.000850514737226493
IT1,8,7,774,77.51937984496124,2,-13,False,,,25.354902613380577,0.0,1331.1049999902025,-25.354902613380577,False,0,0,5,6,0,0,42.0,0.9272330846770025,46.367057599264896,57.77717626758947,-17.88857488249252,-30.961317319564557,0.026650478198854338
IT1,8,6,463,129.58963282937364,4,-13,False,,,62.42097125758927,100.0,6635.0600000005215,37.57902874241073,False,0,0,6,6,0,0,42.0,0.9272330846770025,46.367057599264896,57.77717626758947,39.27996948544715,67.98527034884107,0.06660291292584543
IT1,8,2,504,119.04761904761905,3,-13,False,,,56.30039424560527,50.0,567.1549999970011,-6.300394245605268,False,0,0,7,6,0,0,42.0,0.9272330846770025,46.367057599264896,57.77717626758947,-3.647437376937731,-6.312938105602416,0.000850514737226493
IT1,8,4,329,182.370820668693,5,-16,False,,,87.06720173383901,100.0,1490.8350000041537,12.932798266160987,False,0,0,8,6,0,0,42.0,0.9272330846770025,46.367057599264896,57.77717626758947,10.800177434288798,18.692809396341577,0.012149965405887588
IT1,8,7,463,129.58963282937364,4,-16,False,,,62.42097125758927,50.0,2947.0149999833666,-12.420971257589272,False,0,0,9,6,0,0,42.0,0.9272330846770025,46.367057599264896,57.77717626758947,-10.720030514552853,-18.55409212957043,0.00610641160941442
IT1,8,4,550,109.0909090909091,3,-16,False,,,50.0,50.0,194.99499996891245,0.0,False,0,0,10,6,0,0,42.0,0.9272330846770025,46.367057599264896,57.77717626758947,3.6329424007351037,6.287850385608114,0.0002315755396852531
IT1,8,7,329,182.370820668693,5,-13,False,,,87.06720173383901,100.0,1897.274999995716,12.932798266160987,False,0,0,11,6,0,0,42.0,0.9272330846770025,46.367057599264896,57.77717626758947,10.800177434288798,18.692809396341577,0.012149965405887588
IT1,8,3,425,141.1764705882353,4,-19,False,,,68.5984388693479,75.0,1499.3050000048243,6.401561130652098,False,0,0,12,6,0,0,42.0,0.9272330846770025,46.367057599264896,57.77717626758947,7.141636783609087,12.360653886118074,0.0022438041158638097
IT1,8,2,774,77.51937984496124,2,-13,False,,,25.354902613380577,0.0,2158.980000007432,-25.354902613380577,False,0,0,13,6,0,0,42.0,0.9272330846770025,46.367057599264896,57.77717626758947,-17.88857488249252,-30.961317319564557,0.026650478198854338
IT1,8,6,329,182.370820668693,5,-16,False,,,87.06720173383901,82.0,1603.1099999672733,-5.067201733839013,False,0,0,14,6,0,0,42.0,0.9272330846770025,46.367057599264896,57.77717626758947,-7.199822565711202,-12.46136109588657,0.006608778206192056
IT1,8,4,652,92.02453987730061,2,-13,False,,,37.727982709047225,26.0,2052.540000004228,-11.727982709047225,False,0,0,15,6,0,0,42.0,0.9272330846770025,46.367057599264896,57.77717626758947,-6.186207475699206,-10.707009022123854,0.0025754280004808452
IT1,8,7,550,109.0909090909091,3,-16,False,,,50.0,37.0,2135.000000009313,-13.0,False,0,0,16,6,0,0,42.0,0.9272330846770025,46.367057599264896,57.77717626758947,-9.367057599264896,-16.212383858778878,0.00408477241660599
IT1,8,4,1000,60.0,1,-19,False,,,6.875176187496734,0.0,3873.1100000441074,-6.875176187496734,False,0,0,17,6,0,0,42.0,0.9272330846770025,46.367057599264896,57.77717626758947,3.4655533392099187,5.998135532203131,0.0003324234415100691
IT1,8,6,599,100.1669449081803,3,-13,False,,,43.84378078116181,32.0,1735.240000009071,-11.843780781161811,False,0,0,18,6,0,0,42.0,0.9272330846770025,46.367057599264896,57.77717626758947,-7.25327834029018,-12.553881668943658,0.0028269453329868507
IT1,8,2,1000,60.0,1,-13,False,,,6.875176187496734,0.0,1584.999999962747,-6.875176187496734,False,0,0,19,6,0,0,42.0,0.9272330846770025,46.367057599264896,57.77717626758947,3.4655533392099187,5.998135532203131,0.0003324234415100691
IT1,8,6,774,77.51937984496124,2,-13,False,,,25.354902613380577,28.0,2317.0300000347197,2.6450973866194225,False,0,0,20,6,0,0,42.0,0.9272330846770025,46.367057599264896,57.77717626758947,10.11142511750748,17.50072566834589,0.005095042341178146
IT1,8,3,843,71.17437722419929,1,-19,False,,,19.194949373496982,0.0,1338.770000031218,-19.194949373496982,False,0,0,21,6,0,0,42.0,0.9272330846770025,46.367057599264896,57.77717626758947,-10.770480799675255,-18.641410839797366,0.013918133184956678
IT1,8,5,652,92.02453987730061,2,-16,False,,,37.727982709047225,38.0,1412.7900000312366,0.2720172909527747,False,0,0,22,6,0,0,42.0,0.9272330846770025,46.367057599264896,57.77717626758947,5.813792524300794,10.06243797269491,0.0008957817313393417
IT1,8,6,843,71.17437722419929,1,-19,False,,,19.194949373496982,31.0,1771.2099999771453,11.805050626503018,False,0,0,23,6,0,0,42.0,0.9272330846770025,46.367057599264896,57.77717626758947,20.229519200324745,35.01299389681777,0.030660755564887947
IT1,8,5,504,119.04761904761905,3,-19,False,,,56.30039424560527,66.0,1347.1900000004098,9.699605754394732,False,0,0,24,6,0,0,42.0,0.9272330846770025,46.367057599264896,57.77717626758947,12.35256262306227,21.379657887489266,0.005028504681899515
IT1,8,3,710,84.50704225352112,2,-16,False,,,31.580629700998873,34.0,2073.1200000154786,2.4193702990011268,False,0,0,25,6,0,0,42.0,0.9272330846770025,46.367057599264896,57.77717626758947,8.917326490802907,15.433994990518682,0.003069950679277212
