trial_type,trial_index,time_elapsed,internal_node_id,subject,tap_times,stimulus,key_press,button_pressed,response,tap_condition,experiment,valid_key_press,valid_tap_times,pref_rate,test_correct,test_incorrect,test_skipped,extreme_responses,pearsonr,intercept,slope
audio-multiple-response,17,128421,0.0-6.0,1,"[821, 1493, 2096, 2752, 3440, 4080, 4757, 5408, 6069, 6757, 7435, 8133, 8784, 9488, 10251, 10917, 11643, 12331, 12955, 13717, 14411, 15040, 15653, 16315, 16997, 17707, 18427, 19115, 19781]",,"[74, 74, 74, 74, 74, 74, 74, 74, 74, 74, 74, 74, 74, 74, 74, 74, 74, 74, 74, 74, 74, 74, 74, 74, 74, 74, 74, 74, 74]",,,True,IT1,"[74 74 74 74 74 74 74 74 74 74 74 74 74 74 74 74 74 74 74 74 74 74 74 74
 74 74 74 74 74]","[  821  1493  2096  2752  3440  4080  4757  5408  6069  6757  7435  8133
  8784  9488 10251 10917 11643 12331 12955 13717 14411 15040 15653 16315
 16997 17707 18427 19115 19781]",677.5,6,0,0,29.0,0.9229684665821254,357.41814585305167,-48.536012220606565
audio-multiple-response,17,110687,0.0-6.0,2,"[505, 1138, 1800, 2467, 3140, 3808, 4487, 5201, 5863, 6513, 7152, 7854, 8481, 9102, 9764, 10391, 11029, 11668, 12307, 12963, 13578, 14240, 14930, 15552, 16202, 16242, 16846, 17485, 18117, 18779, 19406]",,"[74, 74, 74, 74, 74, 74, 74, 74, 74, 74, 74, 74, 74, 74, 74, 74, 74, 74, 74, 74, 74, 74, 74, 74, 74, 79, 74, 74, 74, 74, 74]",,,True,IT1,"[74 74 74 74 74 74 74 74 74 74 74 74 74 74 74 74 74 74 74 74 74 74 74 74
 74 74 74 74 74 74]","[  505  1138  1800  2467  3140  3808  4487  5201  5863  6513  7152  7854
  8481  9102  9764 10391 11029 11668 12307 12963 13578 14240 14930 15552
 16202 16846 17485 18117 18779 19406]",650.0,6,0,0,31.0,0.9028819707517066,533.8591138859481,-76.99252673850833
audio-multiple-response,17,115784,0.0-6.0,3,"[1056, 1952, 2635, 2901, 3104, 4784, 5147, 5413, 5883, 6235, 6512, 6832, 6971, 7232, 7515, 7744, 7973, 8208, 8496, 8741, 8976, 9659, 14539, 14683, 14821, 14987, 15131, 15264, 15365, 15467, 15680, 15776, 15888, 16085, 16187, 16267, 16363, 16464, 16571, 16672, 16773, 16875, 17152, 17653, 17787, 17947, 18229, 18395, 18539, 18672, 18827, 18992, 19173, 19445, 19637, 19835]",,"[74, 74, 74, 74, 74, 74, 74, 74, 74, 70, 74, 70, 74, 75, 75, 74, 74, 74, 85, 73, 74, 13, 74, 74, 74, 74, 74, 74, 74, 74, 74, 74, 74, 74, 74, 74, 74, 74, 74, 74, 74, 74, 74, 74, 74, 74, 74, 74, 74, 74, 74, 74, 74, 74, 74, 74]",,,False,IT1,"[74 74 74 74 74 74 74 74 74 70 74 70 74 74 74 74 74 74 74 74 74 74 74 74
 74 74 74 74 74 74 74 74 74 74 74 74 74 74 74 74 74 74 74 74 74 74 74 74
 74 74 74]","[ 1056  1952  2635  2901  3104  4784  5147  5413  5883  6235  6512  6832
  6971  7744  7973  8208  8976 14539 14683 14821 14987 15131 15264 15365
 15467 15680 15776 15888 16085 16187 16267 16363 16464 16571 16672 16773
 16875 17152 17653 17787 17947 18229 18395 18539 18672 18827 18992 19173
 19445 19637 19835]",173.5,6,0,0,42.0,0.6025996635431053,257.2397626416845,-33.28376365379866
audio-multiple-response,17,118835,0.0-6.0,4,"[1654, 1956, 2276, 2624, 2984, 3349, 3715, 4040, 4394, 4748, 5108, 5468, 5793, 6060, 6432, 6734, 7059, 7384, 7674, 7959, 8255, 8464, 8684, 8980, 9352, 9665, 9979, 10240, 10542, 10896, 11186, 11494, 11848, 12231, 12643, 12980, 13334, 13671, 14036, 14414, 14785, 15174, 15557, 15958, 16347, 16707, 17067, 17427, 17792, 18158, 18524, 18907, 19255, 19615]",,"[74, 74, 74, 74, 74, 74, 74, 74, 74, 74, 74, 74, 74, 74, 74, 74, 74, 74, 74, 74, 74, 74, 74, 74, 74, 74, 74, 74, 74, 74, 74, 74, 74, 74, 74, 74, 74, 74, 74, 74, 74, 74, 74, 74, 74, 74, 74, 74, 74, 74, 74, 74, 74, 74]",,,False,IT1,"[74 74 74 74 74 74 74 74 74 74 74 74 74 74 74 74 74 74 74 74 74 74 74 74
 74 74 74 74 74 74 74 74 74 74 74 74 74 74 74 74 74 74 74 74 74 74 74 74
 74 74 74 74 74 74]","[ 1654  1956  2276  2624  2984  3349  3715  4040  4394  4748  5108  5468
  5793  6060  6432  6734  7059  7384  7674  7959  8255  8464  8684  8980
  9352  9665  9979 10240 10542 10896 11186 11494 11848 12231 12643 12980
 13334 13671 14036 14414 14785 15174 15557 15958 16347 16707 17067 17427
 17792 18158 18524 18907 19255 19615]",354.0,6,0,0,23.0,0.6166749577354588,289.94914052521216,-37.7271320961744
audio-multiple-response,17,88905,0.0-6.0,8,"[691, 1109, 1531, 1971, 2379, 2829, 3259, 3691, 4139, 4549, 5019, 5429, 5880, 6299, 6739, 7171, 7651, 8139, 8571, 9011, 9440, 9891, 10291, 10731, 11171, 11611, 12051, 12499, 12960, 13451, 13891, 14379, 14811, 15229, 15680, 16160, 16589, 17029, 17491, 17960, 18389, 18851, 19299, 19789]",,"[74, 74, 74, 74, 74, 74, 74, 74, 74, 74, 74, 74, 74, 74, 74, 74, 74, 74, 74, 74, 74, 74, 74, 74, 74, 74, 74, 74, 74, 74, 74, 74, 74, 74, 74, 74, 74, 74, 74, 74, 74, 74, 74, 74]",,,False,IT1,"[74 74 74 74 74 74 74 74 74 74 74 74 74 74 74 74 74 74 74 74 74 74 74 74
 74 74 74 74 74 74 74 74 74 74 74 74 74 74 74 74 74 74 74 74]","[  691  1109  1531  1971  2379  2829  3259  3691  4139  4549  5019  5429
  5880  6299  6739  7171  7651  8139  8571  9011  9440  9891 10291 10731
 11171 11611 12051 12499 12960 13451 13891 14379 14811 15229 15680 16160
 16589 17029 17491 17960 18389 18851 19299 19789]",440.0,6,0,0,42.0,0.9272330846335461,572.3293219204845,-83.35484567781883
audio-multiple-response,17,147781,0.0-6.0,6,"[773, 1040, 1248, 1445, 1632, 1824, 2005, 2176, 2368, 2528, 2709, 2869, 3051, 3221, 3397, 3568, 3739, 3893, 4069, 4235, 4405, 4576, 4752, 4923, 5104, 5285, 5456, 5637, 5803, 5995, 6149, 6320, 6496, 6667, 6843, 7024, 7189, 7355, 7541, 7696, 7861, 8027, 8203, 8379, 8539, 8699, 8859, 9024, 9189, 9349, 9520, 9680, 9856, 10021, 10192, 10357, 10533, 10699, 10864, 11024, 11189, 11365, 11531, 11707, 11883, 12048, 12213, 12384, 12560, 12731, 12917, 13115, 13291, 13467, 13648, 13813, 13989, 14165, 14352, 14533, 14704, 14880, 15061, 15216, 15403, 15579, 15755, 15931, 16107, 16283, 16453, 16645, 16827, 17003, 17179, 17360, 17531, 17712, 17888, 18075, 18261, 18443, 18624, 18805, 18992, 19184, 19376, 19568, 19755, 19947]",,"[70, 70, 70, 70, 70, 70, 70, 70, 70, 70, 70, 70, 70, 70, 70, 70, 70, 70, 70, 70, 70, 70, 70, 70, 70, 70, 70, 70, 70, 70, 70, 70, 70, 70, 70, 70, 70, 70, 70, 70, 70, 70, 70, 70, 70, 70, 70, 70, 70, 70, 70, 70, 70, 70, 70, 70, 70, 70, 70, 70, 70, 70, 70, 70, 70, 70, 70, 70, 70, 70, 70, 70, 70, 70, 70, 70, 70, 70, 70, 70, 70, 70, 70, 70, 70, 70, 70, 70, 70, 70, 70, 70, 70, 70, 70, 70, 70, 70, 70, 70, 70, 70, 70, 70, 70, 70, 70, 70, 70, 70]",,,True,IT1,"[70 70 70 70 70 70 70 70 70 70 70 70 70 70 70 70 70 70 70 70 70 70 70 70
 70 70 70 70 70 70 70 70 70 70 70 70 70 70 70 70 70 70 70 70 70 70 70 70
 70 70 70 70 70 70 70 70 70 70 70 70 70 70 70 70 70 70 70 70 70 70 70 70
 70 70 70 70 70 70 70 70 70 70 70 70 70 70 70 70 70 70 70 70 70 70 70 70
 70 70 70 70 70 70 70 70 70 70 70 70 70 70]","[  773  1040  1248  1445  1632  1824  2005  2176  2368  2528  2709  2869
  3051  3221  3397  3568  3739  3893  4069  4235  4405  4576  4752  4923
  5104  5285  5456  5637  5803  5995  6149  6320  6496  6667  6843  7024
  7189  7355  7541  7696  7861  8027  8203  8379  8539  8699  8859  9024
  9189  9349  9520  9680  9856 10021 10192 10357 10533 10699 10864 11024
 11189 11365 11531 11707 11883 12048 12213 12384 12560 12731 12917 13115
 13291 13467 13648 13813 13989 14165 14352 14533 14704 14880 15061 15216
 15403 15579 15755 15931 16107 16283 16453 16645 16827 17003 17179 17360
 17531 17712 17888 18075 18261 18443 18624 18805 18992 19184 19376 19568
 19755 19947]",176.0,6,0,0,30.0,0.8911736761645627,468.6197356274255,-65.99554350150332
audio-multiple-response,17,133487,0.0-6.0,9,"[661, 872, 1091, 1291, 1520, 1731, 1960, 2171, 2381, 2592, 2832, 3032, 3251, 3480, 3691, 3912, 4141, 4352, 4581, 4800, 5021, 5240, 5461, 5691, 5920, 6160, 6371, 6600, 6811, 7051, 7291, 7501, 7720, 7941, 8141, 8360, 8571, 8792, 9000, 9232, 9451, 9680, 9920, 10152, 10381, 10621, 10851, 11061, 11312, 11531, 11771, 12021, 12221, 12451, 12701, 12901, 13112, 13341, 13571, 13781, 14000, 14251, 14480, 14720, 14931, 15200, 15432, 15661, 15891, 16120, 16360, 16600, 16851, 17080, 17331, 17571, 17821, 18061, 18331, 18571, 18800, 19040, 19291, 19512, 19752, 19992]",,"[74, 74, 74, 74, 74, 74, 74, 74, 74, 74, 74, 74, 74, 74, 74, 74, 74, 74, 74, 74, 74, 74, 74, 74, 74, 74, 74, 74, 74, 74, 74, 74, 74, 74, 74, 74, 74, 74, 74, 74, 74, 74, 74, 74, 74, 74, 74, 74, 74, 74, 74, 74, 74, 74, 74, 74, 74, 74, 74, 74, 74, 74, 74, 74, 74, 74, 74, 74, 74, 74, 74, 74, 74, 74, 74, 74, 74, 74, 74, 74, 74, 74, 74, 74, 74, 74]",,,True,IT1,"[74 74 74 74 74 74 74 74 74 74 74 74 74 74 74 74 74 74 74 74 74 74 74 74
 74 74 74 74 74 74 74 74 74 74 74 74 74 74 74 74 74 74 74 74 74 74 74 74
 74 74 74 74 74 74 74 74 74 74 74 74 74 74 74 74 74 74 74 74 74 74 74 74
 74 74 74 74 74 74 74 74 74 74 74 74 74 74]","[  661   872  1091  1291  1520  1731  1960  2171  2381  2592  2832  3032
  3251  3480  3691  3912  4141  4352  4581  4800  5021  5240  5461  5691
  5920  6160  6371  6600  6811  7051  7291  7501  7720  7941  8141  8360
  8571  8792  9000  9232  9451  9680  9920 10152 10381 10621 10851 11061
 11312 11531 11771 12021 12221 12451 12701 12901 13112 13341 13571 13781
 14000 14251 14480 14720 14931 15200 15432 15661 15891 16120 16360 16600
 16851 17080 17331 17571 17821 18061 18331 18571 18800 19040 19291 19512
 19752 19992]",229.0,6,0,0,39.0,0.9562994059015643,571.48117451185,-82.72819337983299
audio-multiple-response,17,126659,0.0-6.0,10,"[315, 635, 891, 1179, 1765, 1979, 2235, 2517, 2789, 3072, 3349, 3589, 3856, 4112, 4379, 4587, 4848, 5093, 5317, 5584, 5824, 6064, 6363, 6640, 6896, 7152, 7403, 7643, 7883, 8107, 8341, 8539, 8709, 8869, 9019, 9189, 9344, 9483, 9648, 9797, 9952, 10133, 10293, 10475, 10640, 10800, 10976, 11189, 11451, 11728, 11963, 12208, 12469, 12773, 13040, 13301, 13563, 13835, 14085, 14341, 14603, 14859, 15125, 15387, 15637, 15888, 16165, 16443, 16699, 17003, 17275, 17552, 17813, 18091, 18315, 18571, 18821, 19045, 19291, 19568, 19803]",,"[74, 74, 74, 74, 74, 74, 74, 74, 74, 74, 74, 74, 74, 74, 74, 74, 74, 74, 74, 74, 74, 74, 74, 74, 74, 74, 74, 74, 74, 74, 74, 74, 74, 74, 74, 74, 74, 74, 74, 74, 74, 74, 74, 74, 74, 74, 74, 74, 74, 74, 74, 74, 74, 74, 74, 74, 74, 74, 74, 74, 74, 74, 74, 74, 74, 74, 74, 74, 74, 74, 74, 74, 74, 74, 74, 74, 74, 74, 74, 74, 74]",,,True,IT1,"[74 74 74 74 74 74 74 74 74 74 74 74 74 74 74 74 74 74 74 74 74 74 74 74
 74 74 74 74 74 74 74 74 74 74 74 74 74 74 74 74 74 74 74 74 74 74 74 74
 74 74 74 74 74 74 74 74 74 74 74 74 74 74 74 74 74 74 74 74 74 74 74 74
 74 74 74 74 74 74 74 74 74]","[  315   635   891  1179  1765  1979  2235  2517  2789  3072  3349  3589
  3856  4112  4379  4587  4848  5093  5317  5584  5824  6064  6363  6640
  6896  7152  7403  7643  7883  8107  8341  8539  8709  8869  9019  9189
  9344  9483  9648  9797  9952 10133 10293 10475 10640 10800 10976 11189
 11451 11728 11963 12208 12469 12773 13040 13301 13563 13835 14085 14341
 14603 14859 15125 15387 15637 15888 16165 16443 16699 17003 17275 17552
 17813 18091 18315 18571 18821 19045 19291 19568 19803]",256.0,5,0,1,61.0,0.9369093517146914,650.6609515258292,-95.07319230173522
audio-multiple-response,17,143756,0.0-6.0,11,"[700, 1919, 2958, 3550, 4209, 4769, 5378, 6008, 6548, 7050, 7570, 8118, 8638, 9210, 9660, 10240, 10728, 11238, 11749, 12240, 12690, 13209, 13729, 14219, 14698, 15209, 15729, 16260, 16768, 17308, 17818, 18338, 18858, 19429, 19940]",,"[74, 74, 74, 74, 74, 74, 74, 74, 74, 74, 74, 74, 74, 74, 74, 74, 74, 74, 74, 74, 74, 74, 74, 74, 74, 74, 74, 74, 74, 74, 74, 74, 74, 74, 74]",,,False,IT1,"[74 74 74 74 74 74 74 74 74 74 74 74 74 74 74 74 74 74 74 74 74 74 74 74
 74 74 74 74 74 74 74 74 74 74 74]","[  700  1919  2958  3550  4209  4769  5378  6008  6548  7050  7570  8118
  8638  9210  9660 10240 10728 11238 11749 12240 12690 13209 13729 14219
 14698 15209 15729 16260 16768 17308 17818 18338 18858 19429 19940]",520.0,6,0,0,48.0,0.6892886307336327,216.43067438255923,-26.670365098611907
audio-multiple-response,17,134610,0.0-6.0,13,"[731, 1456, 2181, 2891, 3563, 4293, 5013, 5723, 6443, 7184, 7883, 8581, 9296, 9995, 10683, 11360, 12064, 12757, 13424, 14085, 14773, 15472, 16128, 16805, 17477, 18160, 18800, 19424]",,"[74, 74, 74, 74, 74, 74, 74, 74, 74, 74, 74, 74, 74, 74, 74, 74, 74, 74, 74, 74, 74, 74, 74, 74, 74, 74, 74, 74]",,,True,IT1,"[74 74 74 74 74 74 74 74 74 74 74 74 74 74 74 74 74 74 74 74 74 74 74 74
 74 74 74 74]","[  731  1456  2181  2891  3563  4293  5013  5723  6443  7184  7883  8581
  9296  9995 10683 11360 12064 12757 13424 14085 14773 15472 16128 16805
 17477 18160 18800 19424]",698.0,2,1,3,46.0,0.8805242665913304,554.8133070530166,-79.9206142163963
audio-multiple-response,17,174224,0.0-6.0,14,"[411, 960, 1600, 2211, 2811, 3411, 3971, 4480, 5091, 5621, 6221, 6781, 7341, 7901, 8472, 9021, 9560, 10152, 10712, 11272, 11832, 12360, 12920, 13451, 13992, 14592, 15131, 15672, 16152, 16752, 17291, 17851, 18360, 18901, 19451, 20000]",,"[74, 74, 74, 74, 74, 74, 74, 74, 74, 74, 74, 74, 74, 74, 74, 74, 74, 74, 74, 74, 74, 74, 74, 74, 74, 74, 74, 74, 74, 74, 74, 74, 74, 74, 74, 74]",,,True,IT1,"[74 74 74 74 74 74 74 74 74 74 74 74 74 74 74 74 74 74 74 74 74 74 74 74
 74 74 74 74 74 74 74 74 74 74 74 74]","[  411   960  1600  2211  2811  3411  3971  4480  5091  5621  6221  6781
  7341  7901  8472  9021  9560 10152 10712 11272 11832 12360 12920 13451
 13992 14592 15131 15672 16152 16752 17291 17851 18360 18901 19451 20000]",560.0,6,0,0,84.0,0.5257033338427852,136.16142823731863,-13.77480777607606
audio-multiple-response,17,81040,0.0-6.0,17,"[1010, 1292, 1631, 1971, 2302, 2630, 2961, 3280, 3631, 3971, 4310, 4629, 4940, 5280, 5611, 5909, 6261, 6571, 6911, 7250, 7602, 7912, 8231, 8559, 8902, 9221, 9552, 9871, 10211, 10530, 10861, 11180, 11520, 11822, 12170, 12481, 12841, 13131, 13491, 13790, 14092, 14420, 14780, 15110, 15430, 15761, 16091, 16419, 16750, 17081, 17421, 17752, 18071, 18402, 18762, 19061, 19380, 19731]",,"[74, 74, 74, 74, 74, 74, 74, 74, 74, 74, 74, 74, 74, 74, 74, 74, 74, 74, 74, 74, 74, 74, 74, 74, 74, 74, 74, 74, 74, 74, 74, 74, 74, 74, 74, 74, 74, 74, 74, 74, 74, 74, 74, 74, 74, 74, 74, 74, 74, 74, 74, 74, 74, 74, 74, 74, 74, 74]",,,False,IT1,"[74 74 74 74 74 74 74 74 74 74 74 74 74 74 74 74 74 74 74 74 74 74 74 74
 74 74 74 74 74 74 74 74 74 74 74 74 74 74 74 74 74 74 74 74 74 74 74 74
 74 74 74 74 74 74 74 74 74 74]","[ 1010  1292  1631  1971  2302  2630  2961  3280  3631  3971  4310  4629
  4940  5280  5611  5909  6261  6571  6911  7250  7602  7912  8231  8559
  8902  9221  9552  9871 10211 10530 10861 11180 11520 11822 12170 12481
 12841 13131 13491 13790 14092 14420 14780 15110 15430 15761 16091 16419
 16750 17081 17421 17752 18071 18402 18762 19061 19380 19731]",331.0,6,0,0,16.0,0.9454768090301002,497.65640731208214,-71.1432400287071
audio-multiple-response,17,186372,0.0-6.0,18,"[1974, 5428, 8121, 11273, 13154, 14780, 16475, 18170, 19778]",,"[74, 74, 74, 74, 74, 74, 74, 74, 74]",,,False,IT1,[74 74 74 74 74 74 74 74 74],[ 1974  5428  8121 11273 13154 14780 16475 18170 19778],1788.0,5,1,0,36.0,0.951273717992623,560.8062178886532,-80.22120740135102
audio-multiple-response,17,176356,0.0-6.0,19,"[901, 1424, 2000, 2517, 3024, 3536, 4027, 4565, 5056, 5563, 6096, 6565, 7040, 7541, 8000, 8496, 8976, 9435, 9888, 10357, 10880, 11365, 11867, 12347, 12912, 13355, 13803, 14277, 14699, 15211, 15712, 16181, 16560, 17061, 17536, 18112, 18592, 19061, 19557]",,"[74, 74, 74, 74, 74, 74, 74, 74, 74, 74, 74, 74, 74, 74, 74, 74, 74, 74, 74, 74, 74, 74, 74, 74, 74, 74, 74, 74, 74, 74, 74, 74, 74, 74, 74, 74, 74, 74, 74]",,,False,IT1,"[74 74 74 74 74 74 74 74 74 74 74 74 74 74 74 74 74 74 74 74 74 74 74 74
 74 74 74 74 74 74 74 74 74 74 74 74 74 74 74]","[  901  1424  2000  2517  3024  3536  4027  4565  5056  5563  6096  6565
  7040  7541  8000  8496  8976  9435  9888 10357 10880 11365 11867 12347
 12912 13355 13803 14277 14699 15211 15712 16181 16560 17061 17536 18112
 18592 19061 19557]",491.0,5,0,1,26.0,0.9593917836771504,602.7030326110987,-87.57455716413877
audio-multiple-response,17,121274,0.0-6.0,23,"[551, 702, 836, 987, 1097, 1225, 1341, 1474, 1608, 1741, 1887, 1997, 2142, 2287, 2438, 2560, 2682, 2839, 3001, 3140, 3297, 3448, 3617, 3779, 3942, 4081, 4214, 4365, 4540, 4702, 4882, 5027, 5195, 5358, 5526, 5689, 5875, 6020, 6182, 6322, 6496, 6676, 6850, 7018, 7192, 7361, 7535, 7709, 7895, 8052, 8220, 8400, 8574, 8731, 8887, 9056, 9218, 9392, 9567, 9741, 9915, 10095, 10286, 10472, 10652, 10826, 11006, 11163, 11337, 11505, 11685, 11860, 11987, 12161, 12324, 12492, 12655, 12829, 12997, 13160, 13334, 13502, 13671, 13862, 14042, 14205, 14391, 14576, 14762, 14948, 15139, 15319, 15505, 15668, 15842, 16028, 16213, 16411, 16596, 16782, 16968, 17154, 17345, 17537, 17728, 17914, 18100, 18292, 18489, 18663, 18849, 19040, 19232, 19429, 19615, 19812, 19998]",,"[74, 74, 74, 74, 74, 74, 74, 74, 74, 74, 74, 74, 74, 74, 74, 74, 74, 74, 74, 74, 74, 74, 74, 74, 74, 74, 74, 74, 74, 74, 74, 74, 74, 74, 74, 74, 74, 74, 74, 74, 74, 74, 74, 74, 74, 74, 74, 74, 74, 74, 74, 74, 74, 74, 74, 74, 74, 74, 74, 74, 74, 74, 74, 74, 74, 74, 74, 74, 74, 74, 74, 74, 74, 74, 74, 74, 74, 74, 74, 74, 74, 74, 74, 74, 74, 74, 74, 74, 74, 74, 74, 74, 74, 74, 74, 74, 74, 74, 74, 74, 74, 74, 74, 74, 74, 74, 74, 74, 74, 74, 74, 74, 74, 74, 74, 74, 74]",,,False,IT1,"[74 74 74 74 74 74 74 74 74 74 74 74 74 74 74 74 74 74 74 74 74 74 74 74
 74 74 74 74 74 74 74 74 74 74 74 74 74 74 74 74 74 74 74 74 74 74 74 74
 74 74 74 74 74 74 74 74 74 74 74 74 74 74 74 74 74 74 74 74 74 74 74 74
 74 74 74 74 74 74 74 74 74 74 74 74 74 74 74 74 74 74 74 74 74 74 74 74
 74 74 74 74 74 74 74 74 74 74 74 74 74 74 74 74 74 74 74 74 74]","[  551   702   836   987  1097  1225  1341  1474  1608  1741  1887  1997
  2142  2287  2438  2560  2682  2839  3001  3140  3297  3448  3617  3779
  3942  4081  4214  4365  4540  4702  4882  5027  5195  5358  5526  5689
  5875  6020  6182  6322  6496  6676  6850  7018  7192  7361  7535  7709
  7895  8052  8220  8400  8574  8731  8887  9056  9218  9392  9567  9741
  9915 10095 10286 10472 10652 10826 11006 11163 11337 11505 11685 11860
 11987 12161 12324 12492 12655 12829 12997 13160 13334 13502 13671 13862
 14042 14205 14391 14576 14762 14948 15139 15319 15505 15668 15842 16028
 16213 16411 16596 16782 16968 17154 17345 17537 17728 17914 18100 18292
 18489 18663 18849 19040 19232 19429 19615 19812 19998]",174.0,5,1,0,64.0,0.8230188588241547,555.7490664363436,-79.96601910354809
audio-multiple-response,17,129912,0.0-6.0,25,"[520, 659, 808, 949, 1088, 1240, 1389, 1520, 1669, 1808, 1949, 2109, 2259, 2408, 2560, 2720, 2880, 3029, 3189, 3339, 3499, 3648, 3800, 3960, 4120, 4259, 4429, 4579, 4739, 4909, 5059, 5219, 5368, 5528, 5699, 5869, 6019, 6179, 6349, 6520, 6680, 6848, 7008, 7179, 7328, 7499, 7659, 7819, 7989, 8160, 8320, 8488, 8640, 8808, 8968, 9128, 9288, 9448, 9608, 9768, 9939, 10099, 10248, 10419, 10579, 10760, 10920, 11088, 11259, 11408, 11579, 11749, 11909, 12069, 12240, 12408, 12579, 12749, 12909, 13069, 13248, 13400, 13568, 13760, 13920, 14069, 14219, 14389, 14539, 14709, 14859, 15019, 15200, 15368, 15539, 15728, 15880, 16048, 16229, 16379, 16549, 16728, 16888, 17059, 17229, 17408, 17579, 17749, 17928, 18109, 18259, 18440, 18608, 18789, 18939, 19109, 19280, 19459, 19629, 19808, 19968]",,"[74, 74, 74, 74, 74, 74, 74, 74, 74, 74, 74, 74, 74, 74, 74, 74, 74, 74, 74, 74, 74, 74, 74, 74, 74, 74, 74, 74, 74, 74, 74, 74, 74, 74, 74, 74, 74, 74, 74, 74, 74, 74, 74, 74, 74, 74, 74, 74, 74, 74, 74, 74, 74, 74, 74, 74, 74, 74, 74, 74, 74, 74, 74, 74, 74, 74, 74, 74, 74, 74, 74, 74, 74, 74, 74, 74, 74, 74, 74, 74, 74, 74, 74, 74, 74, 74, 74, 74, 74, 74, 74, 74, 74, 74, 74, 74, 74, 74, 74, 74, 74, 74, 74, 74, 74, 74, 74, 74, 74, 74, 74, 74, 74, 74, 74, 74, 74, 74, 74, 74, 74]",,,False,IT1,"[74 74 74 74 74 74 74 74 74 74 74 74 74 74 74 74 74 74 74 74 74 74 74 74
 74 74 74 74 74 74 74 74 74 74 74 74 74 74 74 74 74 74 74 74 74 74 74 74
 74 74 74 74 74 74 74 74 74 74 74 74 74 74 74 74 74 74 74 74 74 74 74 74
 74 74 74 74 74 74 74 74 74 74 74 74 74 74 74 74 74 74 74 74 74 74 74 74
 74 74 74 74 74 74 74 74 74 74 74 74 74 74 74 74 74 74 74 74 74 74 74 74
 74]","[  520   659   808   949  1088  1240  1389  1520  1669  1808  1949  2109
  2259  2408  2560  2720  2880  3029  3189  3339  3499  3648  3800  3960
  4120  4259  4429  4579  4739  4909  5059  5219  5368  5528  5699  5869
  6019  6179  6349  6520  6680  6848  7008  7179  7328  7499  7659  7819
  7989  8160  8320  8488  8640  8808  8968  9128  9288  9448  9608  9768
  9939 10099 10248 10419 10579 10760 10920 11088 11259 11408 11579 11749
 11909 12069 12240 12408 12579 12749 12909 13069 13248 13400 13568 13760
 13920 14069 14219 14389 14539 14709 14859 15019 15200 15368 15539 15728
 15880 16048 16229 16379 16549 16728 16888 17059 17229 17408 17579 17749
 17928 18109 18259 18440 18608 18789 18939 19109 19280 19459 19629 19808
 19968]",160.0,4,1,1,68.0,0.8210883105458526,663.0760517045395,-97.07251680566974
audio-multiple-response,17,134329,0.0-6.0,27,"[611, 971, 1251, 1451, 1659, 1960, 2200, 2451, 2709, 2949, 3171, 3419, 3659, 3880, 4099, 4331, 4549, 4749, 5000, 5189, 5400, 5619, 5800, 6011, 6219, 6429, 6659, 6859, 7099, 7360, 7579, 7819, 8040, 8240, 8480, 8680, 8869, 9091, 9299, 9499, 9749, 9989, 10179, 10400, 10651, 10829, 11019, 11219, 11440, 11651, 11869, 12091, 12309, 12520, 12720, 12909, 13131, 13331, 13539, 13739, 13939, 14131, 14339, 14539, 14749, 14960, 15179, 15400, 15579, 15779, 15989, 16200, 16419, 16600, 16840, 17051, 17280, 17480, 17691, 17891, 18139, 18331, 18549, 18739, 18960, 19160, 19360, 19549, 19811]",,"[74, 74, 74, 74, 74, 74, 74, 74, 74, 74, 74, 74, 74, 74, 74, 74, 74, 74, 74, 74, 74, 74, 74, 74, 74, 74, 74, 74, 74, 74, 74, 74, 74, 74, 74, 74, 74, 74, 74, 74, 74, 74, 74, 74, 74, 74, 74, 74, 74, 74, 74, 74, 74, 74, 74, 74, 74, 74, 74, 74, 74, 74, 74, 74, 74, 74, 74, 74, 74, 74, 74, 74, 74, 74, 74, 74, 74, 74, 74, 74, 74, 74, 74, 74, 74, 74, 74, 74, 74]",,,True,IT1,"[74 74 74 74 74 74 74 74 74 74 74 74 74 74 74 74 74 74 74 74 74 74 74 74
 74 74 74 74 74 74 74 74 74 74 74 74 74 74 74 74 74 74 74 74 74 74 74 74
 74 74 74 74 74 74 74 74 74 74 74 74 74 74 74 74 74 74 74 74 74 74 74 74
 74 74 74 74 74 74 74 74 74 74 74 74 74 74 74 74 74]","[  611   971  1251  1451  1659  1960  2200  2451  2709  2949  3171  3419
  3659  3880  4099  4331  4549  4749  5000  5189  5400  5619  5800  6011
  6219  6429  6659  6859  7099  7360  7579  7819  8040  8240  8480  8680
  8869  9091  9299  9499  9749  9989 10179 10400 10651 10829 11019 11219
 11440 11651 11869 12091 12309 12520 12720 12909 13131 13331 13539 13739
 13939 14131 14339 14539 14749 14960 15179 15400 15579 15779 15989 16200
 16419 16600 16840 17051 17280 17480 17691 17891 18139 18331 18549 18739
 18960 19160 19360 19549 19811]",211.0,5,0,1,20.0,0.8765248624269467,596.5971221242683,-86.51631368348731
audio-multiple-response,17,108885,0.0-6.0,28,"[348, 784, 1242, 1712, 2188, 2630, 3082, 3675, 3872, 4110, 4301, 4493, 4696, 4888, 5074, 5265, 5462, 5660, 5834, 6043, 6235, 6583, 6780, 6960, 7129, 7314, 7564, 7715, 7854, 8580, 8760, 8940, 9102, 9294, 9462, 9630, 9822, 9996, 10170, 10339, 10513, 10675, 10861, 11029, 11192, 11360, 11529, 11691, 11877, 11964, 12144, 12353, 12527, 12696, 12852, 13026, 13201, 13369, 13526, 13665, 13839, 14025, 14205, 14379, 14553, 14745, 14913, 15105, 15279, 15464, 15627, 15836, 16010, 16179, 16341, 16504, 16678, 16846, 17026, 17235, 17409, 17845, 17990, 18199, 18396, 18564, 18739, 18913, 19087, 19249, 19389, 19870]",,"[74, 74, 74, 74, 74, 74, 74, 74, 74, 74, 74, 74, 74, 74, 74, 74, 74, 74, 74, 74, 74, 74, 74, 74, 74, 74, 74, 74, 74, 74, 74, 74, 74, 74, 74, 74, 74, 74, 74, 74, 74, 74, 74, 74, 74, 74, 74, 74, 74, 74, 74, 74, 74, 74, 74, 74, 74, 74, 74, 74, 74, 74, 74, 74, 74, 74, 74, 74, 74, 74, 74, 74, 74, 74, 74, 74, 74, 74, 74, 74, 74, 74, 74, 74, 74, 74, 74, 74, 74, 74, 74, 74]",,,True,IT1,"[74 74 74 74 74 74 74 74 74 74 74 74 74 74 74 74 74 74 74 74 74 74 74 74
 74 74 74 74 74 74 74 74 74 74 74 74 74 74 74 74 74 74 74 74 74 74 74 74
 74 74 74 74 74 74 74 74 74 74 74 74 74 74 74 74 74 74 74 74 74 74 74 74
 74 74 74 74 74 74 74 74 74 74 74 74 74 74 74 74 74 74 74 74]","[  348   784  1242  1712  2188  2630  3082  3675  3872  4110  4301  4493
  4696  4888  5074  5265  5462  5660  5834  6043  6235  6583  6780  6960
  7129  7314  7564  7715  7854  8580  8760  8940  9102  9294  9462  9630
  9822  9996 10170 10339 10513 10675 10861 11029 11192 11360 11529 11691
 11877 11964 12144 12353 12527 12696 12852 13026 13201 13369 13526 13665
 13839 14025 14205 14379 14553 14745 14913 15105 15279 15464 15627 15836
 16010 16179 16341 16504 16678 16846 17026 17235 17409 17845 17990 18199
 18396 18564 18739 18913 19087 19249 19389 19870]",175.0,2,2,2,33.0,0.9588266938961068,603.8820392365116,-87.55705220504822
audio-multiple-response,17,91074,0.0-6.0,29,"[352, 512, 672, 832, 1000, 1171, 1331, 1491, 1651, 1821, 1992, 2152, 2312, 2480, 2651, 2811, 2971, 3152, 3320, 3491, 3651, 3811, 3992, 4152, 4320, 4491, 4661, 4832, 4981, 5131, 5301, 5461, 5651, 5840, 6032, 6211, 6392, 6560, 6741, 6920, 7101, 7280, 7451, 7632, 7800, 7992, 8160, 8360, 8552, 8712, 8891, 9061, 9232, 9400, 9581, 9771, 9971, 10152, 10341, 10531, 10712, 10901, 11080, 11261, 11461, 11632, 11821, 11981, 12171, 12360, 12501, 12712, 12912, 13080, 13272, 13451, 13611, 13792, 13981, 14160, 14352, 14541, 14712, 14901, 15080, 15291, 15472, 15640, 15800, 16011, 16200, 16381, 16552, 16741, 16912, 17101, 17280, 17461, 17640, 17811, 17971, 18141, 18331, 18531, 18712, 18880, 19072, 19251, 19451, 19651, 19851]",,"[70, 70, 70, 70, 70, 70, 70, 70, 70, 70, 70, 70, 70, 70, 70, 70, 70, 70, 70, 70, 70, 70, 70, 70, 70, 70, 70, 70, 70, 70, 70, 70, 70, 70, 70, 70, 70, 70, 70, 70, 70, 70, 70, 70, 70, 70, 70, 70, 70, 70, 70, 70, 70, 70, 70, 70, 70, 70, 70, 70, 70, 70, 70, 70, 70, 70, 70, 70, 70, 70, 70, 70, 70, 70, 70, 70, 70, 70, 70, 70, 70, 70, 70, 70, 70, 70, 70, 70, 70, 70, 70, 70, 70, 70, 70, 70, 70, 70, 70, 70, 70, 70, 70, 70, 70, 70, 70, 70, 70, 70, 70]",,,False,IT1,"[70 70 70 70 70 70 70 70 70 70 70 70 70 70 70 70 70 70 70 70 70 70 70 70
 70 70 70 70 70 70 70 70 70 70 70 70 70 70 70 70 70 70 70 70 70 70 70 70
 70 70 70 70 70 70 70 70 70 70 70 70 70 70 70 70 70 70 70 70 70 70 70 70
 70 70 70 70 70 70 70 70 70 70 70 70 70 70 70 70 70 70 70 70 70 70 70 70
 70 70 70 70 70 70 70 70 70 70 70 70 70 70 70]","[  352   512   672   832  1000  1171  1331  1491  1651  1821  1992  2152
  2312  2480  2651  2811  2971  3152  3320  3491  3651  3811  3992  4152
  4320  4491  4661  4832  4981  5131  5301  5461  5651  5840  6032  6211
  6392  6560  6741  6920  7101  7280  7451  7632  7800  7992  8160  8360
  8552  8712  8891  9061  9232  9400  9581  9771  9971 10152 10341 10531
 10712 10901 11080 11261 11461 11632 11821 11981 12171 12360 12501 12712
 12912 13080 13272 13451 13611 13792 13981 14160 14352 14541 14712 14901
 15080 15291 15472 15640 15800 16011 16200 16381 16552 16741 16912 17101
 17280 17461 17640 17811 17971 18141 18331 18531 18712 18880 19072 19251
 19451 19651 19851]",179.0,6,0,0,64.0,0.7808461617543518,631.736971725594,-91.23162367800711
audio-multiple-response,17,93933,0.0-6.0,30,"[354, 621, 882, 1149, 1399, 1666, 1927, 2183, 2450, 2717, 2966, 3210, 3448, 3709, 3976, 4220, 4481, 4731, 4986, 5242, 5486, 5747, 5979, 6223, 6473, 6711, 6978, 7210, 7465, 7721, 7964, 8226, 8481, 8725, 8986, 9230, 9468, 9718, 9967, 10228, 10466, 10728, 10989, 11262, 11535, 11796, 12080, 12330, 12614, 12881, 13137, 13404, 13665, 13909, 14164, 14425, 14687, 14954, 15215, 15476, 15749, 16022, 16271, 16533, 16782, 17090, 17340, 17607, 17885, 18175, 18413, 18698, 18947, 19226, 19505, 19772]",,"[74, 74, 74, 74, 74, 74, 74, 74, 74, 74, 74, 74, 74, 74, 74, 74, 74, 74, 74, 74, 74, 74, 74, 74, 74, 74, 74, 74, 74, 74, 74, 74, 74, 74, 74, 74, 74, 74, 74, 74, 74, 74, 74, 74, 74, 74, 74, 74, 74, 74, 74, 74, 74, 74, 74, 74, 74, 74, 74, 74, 74, 74, 74, 74, 74, 74, 74, 74, 74, 74, 74, 74, 74, 74, 74, 74]",,,False,IT1,"[74 74 74 74 74 74 74 74 74 74 74 74 74 74 74 74 74 74 74 74 74 74 74 74
 74 74 74 74 74 74 74 74 74 74 74 74 74 74 74 74 74 74 74 74 74 74 74 74
 74 74 74 74 74 74 74 74 74 74 74 74 74 74 74 74 74 74 74 74 74 74 74 74
 74 74 74 74]","[  354   621   882  1149  1399  1666  1927  2183  2450  2717  2966  3210
  3448  3709  3976  4220  4481  4731  4986  5242  5486  5747  5979  6223
  6473  6711  6978  7210  7465  7721  7964  8226  8481  8725  8986  9230
  9468  9718  9967 10228 10466 10728 10989 11262 11535 11796 12080 12330
 12614 12881 13137 13404 13665 13909 14164 14425 14687 14954 15215 15476
 15749 16022 16271 16533 16782 17090 17340 17607 17885 18175 18413 18698
 18947 19226 19505 19772]",261.0,5,1,0,47.0,0.2940797596716397,138.23704071345122,-13.296937348704862
audio-multiple-response,17,86747,0.0-6.0,31,"[411, 656, 832, 987, 1163, 1339, 1515, 1685, 1856, 2043, 2224, 2405, 2581, 2757, 2923, 3088, 3269, 3467, 3643, 3824, 4005, 4181, 4363, 4539, 4731, 4907, 5093, 5269, 5440, 5611, 5787, 5979, 6160, 6341, 6512, 6688, 6875, 7067, 7243, 7429, 7616, 7781, 7952, 8128, 8293, 8469, 8635, 8784, 8960, 9136, 9296, 9472, 9643, 9803, 9979, 10155, 10325, 10496, 10651, 10811, 10960, 11152, 11328, 11509, 11691, 11851, 12037, 12203, 12384, 12555, 12715, 12907, 13093, 13264, 13413, 13557, 13733, 13888, 14064, 14235, 14395, 14549, 14709, 14891, 15077, 15227, 15376, 15563, 15749, 15931, 16080, 16245, 16384, 16571, 16763, 16939, 17109, 17269, 17435, 17627, 17781, 17952, 18256, 18400, 18571, 18741, 18891, 19040, 19221, 19387, 19563, 19755, 19909]",,"[74, 74, 74, 74, 74, 74, 74, 74, 74, 74, 74, 74, 74, 74, 74, 74, 74, 74, 74, 74, 74, 74, 74, 74, 74, 74, 74, 74, 74, 74, 74, 74, 74, 74, 74, 74, 74, 74, 74, 74, 74, 74, 74, 74, 74, 74, 74, 74, 74, 74, 74, 74, 74, 74, 74, 74, 74, 74, 74, 74, 74, 74, 74, 74, 74, 74, 74, 74, 74, 74, 74, 74, 74, 74, 74, 74, 74, 74, 74, 74, 74, 74, 74, 74, 74, 74, 74, 74, 74, 74, 74, 74, 74, 74, 74, 74, 74, 74, 74, 74, 74, 74, 74, 74, 74, 74, 74, 74, 74, 74, 74, 74, 74]",,,True,IT1,"[74 74 74 74 74 74 74 74 74 74 74 74 74 74 74 74 74 74 74 74 74 74 74 74
 74 74 74 74 74 74 74 74 74 74 74 74 74 74 74 74 74 74 74 74 74 74 74 74
 74 74 74 74 74 74 74 74 74 74 74 74 74 74 74 74 74 74 74 74 74 74 74 74
 74 74 74 74 74 74 74 74 74 74 74 74 74 74 74 74 74 74 74 74 74 74 74 74
 74 74 74 74 74 74 74 74 74 74 74 74 74 74 74 74 74]","[  411   656   832   987  1163  1339  1515  1685  1856  2043  2224  2405
  2581  2757  2923  3088  3269  3467  3643  3824  4005  4181  4363  4539
  4731  4907  5093  5269  5440  5611  5787  5979  6160  6341  6512  6688
  6875  7067  7243  7429  7616  7781  7952  8128  8293  8469  8635  8784
  8960  9136  9296  9472  9643  9803  9979 10155 10325 10496 10651 10811
 10960 11152 11328 11509 11691 11851 12037 12203 12384 12555 12715 12907
 13093 13264 13413 13557 13733 13888 14064 14235 14395 14549 14709 14891
 15077 15227 15376 15563 15749 15931 16080 16245 16384 16571 16763 16939
 17109 17269 17435 17627 17781 17952 18256 18400 18571 18741 18891 19040
 19221 19387 19563 19755 19909]",176.0,6,0,0,12.0,0.8856172351782055,429.2222754943104,-60.20440034348945
audio-multiple-response,17,145384,0.0-6.0,32,"[411, 669, 1101, 1541, 1971, 2411, 2861, 3341, 3800, 4261, 4701, 5160, 5640, 6069, 6541, 6971, 7451, 7931, 8381, 8829, 9261, 9720, 10171, 10629, 11080, 11469, 11949, 12411, 12861, 13320, 13749, 14211, 14629, 15141, 15589, 16021, 16501, 16981, 17421, 17920, 18381, 18869, 19331, 19789]",,"[74, 74, 74, 74, 74, 74, 74, 74, 74, 74, 74, 74, 74, 74, 74, 74, 74, 74, 74, 74, 74, 74, 74, 74, 74, 74, 74, 74, 74, 74, 74, 74, 74, 74, 74, 74, 74, 74, 74, 74, 74, 74, 74, 74]",,,True,IT1,"[74 74 74 74 74 74 74 74 74 74 74 74 74 74 74 74 74 74 74 74 74 74 74 74
 74 74 74 74 74 74 74 74 74 74 74 74 74 74 74 74 74 74 74 74]","[  411   669  1101  1541  1971  2411  2861  3341  3800  4261  4701  5160
  5640  6069  6541  6971  7451  7931  8381  8829  9261  9720 10171 10629
 11080 11469 11949 12411 12861 13320 13749 14211 14629 15141 15589 16021
 16501 16981 17421 17920 18381 18869 19331 19789]",458.0,2,4,0,28.0,0.8567742322359991,303.9169824480641,-40.19819912730755
audio-multiple-response,17,360105,0.0-6.0,35,"[644, 1010, 1318, 1689, 2043, 2380, 2734, 3065, 3431, 3738, 4127, 4499, 4865, 5242, 5631, 6026, 6380, 6786, 7187, 7610, 7993, 8365, 8766, 9172, 9555, 9950, 10339, 10768, 11140, 11575, 11987, 12388, 12771, 13148, 13543, 13903, 14286, 14704, 15058, 15464, 15865, 16271, 16678, 17061, 17432, 17874, 18286, 18704, 19098, 19516, 19952]",,"[74, 74, 74, 74, 74, 74, 74, 74, 74, 74, 74, 74, 74, 74, 74, 74, 74, 74, 74, 74, 74, 74, 74, 74, 74, 74, 74, 74, 74, 74, 74, 74, 74, 74, 74, 74, 74, 74, 74, 74, 74, 74, 74, 74, 74, 74, 74, 74, 74, 74, 74]",,,True,IT1,"[74 74 74 74 74 74 74 74 74 74 74 74 74 74 74 74 74 74 74 74 74 74 74 74
 74 74 74 74 74 74 74 74 74 74 74 74 74 74 74 74 74 74 74 74 74 74 74 74
 74 74 74]","[  644  1010  1318  1689  2043  2380  2734  3065  3431  3738  4127  4499
  4865  5242  5631  6026  6380  6786  7187  7610  7993  8365  8766  9172
  9555  9950 10339 10768 11140 11575 11987 12388 12771 13148 13543 13903
 14286 14704 15058 15464 15865 16271 16678 17061 17432 17874 18286 18704
 19098 19516 19952]",389.0,5,0,1,35.0,0.9169434875713574,499.5102455638417,-70.73560097943711
audio-multiple-response,17,167317,0.0-6.0,36,"[531, 906, 1376, 1834, 2270, 2728, 3178, 3605, 4040, 4499, 4937, 5352, 5790, 6269, 6719, 7187, 7636, 8083, 8499, 8948, 9395, 9854, 10281, 10731, 11157, 11604, 12042, 12469, 12916, 13322, 13781, 14228, 14655, 15093, 15508, 15946, 16361, 16808, 17258, 17694, 18143, 18611, 19069, 19496, 19914]",,"[70, 70, 70, 70, 70, 70, 70, 70, 70, 70, 70, 70, 70, 70, 70, 70, 70, 70, 70, 70, 70, 70, 70, 70, 70, 70, 70, 70, 70, 70, 70, 70, 70, 70, 70, 70, 70, 70, 70, 70, 70, 70, 70, 70, 70]",,,True,IT1,"[70 70 70 70 70 70 70 70 70 70 70 70 70 70 70 70 70 70 70 70 70 70 70 70
 70 70 70 70 70 70 70 70 70 70 70 70 70 70 70 70 70 70 70 70 70]","[  531   906  1376  1834  2270  2728  3178  3605  4040  4499  4937  5352
  5790  6269  6719  7187  7636  8083  8499  8948  9395  9854 10281 10731
 11157 11604 12042 12469 12916 13322 13781 14228 14655 15093 15508 15946
 16361 16808 17258 17694 18143 18611 19069 19496 19914]",447.0,5,0,1,21.0,0.9623008789204541,587.1188933440374,-85.02471928865643
audio-multiple-response,17,410989,0.0-6.0,37,"[331, 501, 800, 981, 1152, 1323, 1493, 1643, 1824, 2016, 2187, 2368, 2528, 2720, 2901, 3104, 3296, 3499, 3691, 3893, 4064, 4256, 4459, 4640, 4821, 5013, 5184, 5376, 5557, 5771, 5963, 6155, 6347, 6539, 6699, 6891, 7061, 7253, 7445, 7627, 7819, 8011, 8192, 8395, 8587, 8768, 8949, 9141, 9333, 9525, 9728, 9920, 10112, 10283, 10475, 10667, 10880, 11072, 11264, 11456, 11648, 11861, 12053, 12245, 12427, 12619, 12811, 13024, 13205, 13408, 13600, 13792, 13963, 14155, 14336, 14549, 14720, 14912, 15125, 15285, 15477, 15659, 15851, 16043, 16235, 16459, 16821, 17024, 17195, 17387, 17600, 17803, 17984, 18165, 18357, 18592, 18784, 18965, 19157, 19339, 19531, 19723, 19915]",,"[74, 74, 74, 74, 74, 74, 74, 74, 74, 74, 74, 74, 74, 74, 74, 74, 74, 74, 74, 74, 74, 74, 74, 74, 74, 74, 74, 74, 74, 74, 74, 74, 74, 74, 74, 74, 74, 74, 74, 74, 74, 74, 74, 74, 74, 74, 74, 74, 74, 74, 74, 74, 74, 74, 74, 74, 74, 74, 74, 74, 74, 74, 74, 74, 74, 74, 74, 74, 74, 74, 74, 74, 74, 74, 74, 74, 74, 74, 74, 74, 74, 74, 74, 74, 74, 74, 74, 74, 74, 74, 74, 74, 74, 74, 74, 74, 74, 74, 74, 74, 74, 74, 74]",,,False,IT1,"[74 74 74 74 74 74 74 74 74 74 74 74 74 74 74 74 74 74 74 74 74 74 74 74
 74 74 74 74 74 74 74 74 74 74 74 74 74 74 74 74 74 74 74 74 74 74 74 74
 74 74 74 74 74 74 74 74 74 74 74 74 74 74 74 74 74 74 74 74 74 74 74 74
 74 74 74 74 74 74 74 74 74 74 74 74 74 74 74 74 74 74 74 74 74 74 74 74
 74 74 74 74 74 74 74]","[  331   501   800   981  1152  1323  1493  1643  1824  2016  2187  2368
  2528  2720  2901  3104  3296  3499  3691  3893  4064  4256  4459  4640
  4821  5013  5184  5376  5557  5771  5963  6155  6347  6539  6699  6891
  7061  7253  7445  7627  7819  8011  8192  8395  8587  8768  8949  9141
  9333  9525  9728  9920 10112 10283 10475 10667 10880 11072 11264 11456
 11648 11861 12053 12245 12427 12619 12811 13024 13205 13408 13600 13792
 13963 14155 14336 14549 14720 14912 15125 15285 15477 15659 15851 16043
 16235 16459 16821 17024 17195 17387 17600 17803 17984 18165 18357 18592
 18784 18965 19157 19339 19531 19723 19915]",192.0,5,1,0,30.0,0.960809928060549,485.32761750857975,-69.51206732743901
audio-multiple-response,17,90190,0.0-6.0,38,"[296, 784, 1300, 1817, 2299, 2821, 3268, 3750, 4220, 4731, 5259, 5735, 6217, 6716, 7192, 7686, 8162, 8644, 9137, 9654, 10095, 10565, 11029, 11517, 12005, 12475, 12963, 13491, 13990, 14629, 15052, 15702, 16173, 16660, 17107, 17630, 18077, 18622, 19110, 19603]",,"[74, 74, 74, 74, 74, 74, 74, 74, 74, 74, 74, 74, 74, 74, 74, 74, 74, 74, 74, 74, 74, 74, 74, 74, 74, 74, 74, 74, 74, 74, 74, 74, 74, 74, 74, 74, 74, 74, 74, 74]",,,True,IT1,"[74 74 74 74 74 74 74 74 74 74 74 74 74 74 74 74 74 74 74 74 74 74 74 74
 74 74 74 74 74 74 74 74 74 74 74 74 74 74 74 74]","[  296   784  1300  1817  2299  2821  3268  3750  4220  4731  5259  5735
  6217  6716  7192  7686  8162  8644  9137  9654 10095 10565 11029 11517
 12005 12475 12963 13491 13990 14629 15052 15702 16173 16660 17107 17630
 18077 18622 19110 19603]",488.0,6,0,0,18.0,0.7848391312402081,486.076093337887,-69.4502408607999
audio-multiple-response,17,65722,0.0-6.0,42,"[1823, 1962, 2101, 2241, 2392, 2543, 2688, 2844, 2990, 3146, 3303, 3454, 3605, 3756, 3913, 4069, 4226, 4377, 4540, 4708, 4870, 5039, 5213, 5381, 5550, 5712, 5880, 6037, 6200, 6368, 6531, 6699, 6861, 7030, 7187, 7349, 7517, 7697, 7872, 8057, 8231, 8411, 8586, 8771, 8975, 9166, 9363, 9543, 9729, 9909, 10060, 10211, 10362, 10524, 10670, 10838, 11012, 11186, 11372, 11569, 11755, 11929, 12109, 12272, 12452, 12504, 12603, 12696, 12875, 13061, 13142, 13543, 13775, 13915, 14019, 14263, 14356, 14454, 14640, 14838, 15081, 15296, 15511, 15702, 15906, 16091, 16283, 16486, 16695, 16922, 17165, 17467, 17786, 18158, 18535, 18942, 19325, 19702, 19934]",,"[74, 74, 74, 74, 74, 74, 74, 74, 74, 74, 74, 74, 74, 74, 74, 74, 74, 74, 74, 74, 74, 74, 74, 74, 74, 74, 74, 74, 74, 74, 74, 74, 74, 74, 74, 74, 74, 74, 74, 74, 74, 74, 74, 74, 74, 74, 74, 74, 74, 74, 74, 74, 74, 74, 74, 74, 74, 74, 74, 74, 74, 74, 74, 74, 74, 74, 74, 74, 74, 74, 74, 74, 74, 74, 74, 74, 74, 74, 74, 74, 74, 74, 74, 74, 74, 74, 74, 74, 74, 74, 74, 74, 74, 74, 74, 74, 74, 74, 74]",,,True,IT1,"[74 74 74 74 74 74 74 74 74 74 74 74 74 74 74 74 74 74 74 74 74 74 74 74
 74 74 74 74 74 74 74 74 74 74 74 74 74 74 74 74 74 74 74 74 74 74 74 74
 74 74 74 74 74 74 74 74 74 74 74 74 74 74 74 74 74 74 74 74 74 74 74 74
 74 74 74 74 74 74 74 74 74 74 74 74 74 74 74 74 74 74 74 74 74 74 74 74
 74 74 74]","[ 1823  1962  2101  2241  2392  2543  2688  2844  2990  3146  3303  3454
  3605  3756  3913  4069  4226  4377  4540  4708  4870  5039  5213  5381
  5550  5712  5880  6037  6200  6368  6531  6699  6861  7030  7187  7349
  7517  7697  7872  8057  8231  8411  8586  8771  8975  9166  9363  9543
  9729  9909 10060 10211 10362 10524 10670 10838 11012 11186 11372 11569
 11755 11929 12109 12272 12452 12504 12603 12696 12875 13061 13142 13543
 13775 13915 14019 14263 14356 14454 14640 14838 15081 15296 15511 15702
 15906 16091 16283 16486 16695 16922 17165 17467 17786 18158 18535 18942
 19325 19702 19934]",169.0,5,1,0,22.0,0.6416204909765737,260.4970732122497,-33.20526317802642
audio-multiple-response,17,87134,0.0-6.0,45,"[505, 1445, 1643, 1811, 1974, 2125, 2293, 2444, 2763, 2914, 3077, 3233, 3396, 3564, 3727, 3901, 4069, 4226, 4394, 4574, 4748, 4923, 5097, 5271, 5451, 5631, 5799, 5968, 6153, 6322, 6502, 6676, 6856, 7047, 7239, 7425, 7587, 7767, 7935, 8115, 8313, 8487, 8829, 9021, 9201, 9369, 9538, 9723, 9886, 10060, 10234, 10408, 10582, 10768, 10954, 11140, 11331, 11523, 11697, 11871, 12057, 12243, 12405, 12591, 12806, 12980, 13166, 13351, 13537, 13735, 13944, 14118, 14315, 14507, 14710, 14896, 15110, 15267, 15470, 15662, 15865, 16062, 16260, 16451, 16655, 16858, 17061, 17247, 17427, 17653, 17868, 18071, 18262, 18448, 18646, 18837, 19035, 19232, 19423, 19627, 19830]",,"[74, 74, 74, 74, 74, 74, 74, 74, 74, 74, 74, 74, 74, 74, 74, 74, 74, 74, 74, 74, 74, 74, 74, 74, 74, 74, 74, 74, 74, 74, 74, 74, 74, 74, 74, 74, 74, 74, 74, 74, 74, 74, 74, 74, 74, 74, 74, 74, 74, 74, 74, 74, 74, 74, 74, 74, 74, 74, 74, 74, 74, 74, 74, 74, 74, 74, 74, 74, 74, 74, 74, 74, 74, 74, 74, 74, 74, 74, 74, 74, 74, 74, 74, 74, 74, 74, 74, 74, 74, 74, 74, 74, 74, 74, 74, 74, 74, 74, 74, 74, 74]",,,False,IT1,"[74 74 74 74 74 74 74 74 74 74 74 74 74 74 74 74 74 74 74 74 74 74 74 74
 74 74 74 74 74 74 74 74 74 74 74 74 74 74 74 74 74 74 74 74 74 74 74 74
 74 74 74 74 74 74 74 74 74 74 74 74 74 74 74 74 74 74 74 74 74 74 74 74
 74 74 74 74 74 74 74 74 74 74 74 74 74 74 74 74 74 74 74 74 74 74 74 74
 74 74 74 74 74]","[  505  1445  1643  1811  1974  2125  2293  2444  2763  2914  3077  3233
  3396  3564  3727  3901  4069  4226  4394  4574  4748  4923  5097  5271
  5451  5631  5799  5968  6153  6322  6502  6676  6856  7047  7239  7425
  7587  7767  7935  8115  8313  8487  8829  9021  9201  9369  9538  9723
  9886 10060 10234 10408 10582 10768 10954 11140 11331 11523 11697 11871
 12057 12243 12405 12591 12806 12980 13166 13351 13537 13735 13944 14118
 14315 14507 14710 14896 15110 15267 15470 15662 15865 16062 16260 16451
 16655 16858 17061 17247 17427 17653 17868 18071 18262 18448 18646 18837
 19035 19232 19423 19627 19830]",185.0,6,0,0,40.0,0.7518190514939299,403.8965827317003,-55.73353118279839
audio-multiple-response,17,213906,0.0-6.0,46,"[714, 1416, 2270, 2978, 3605, 4209, 4824, 5416, 6049, 6693, 7279, 7889, 8615, 9207, 9781, 10356, 10954, 11552, 12156, 12788, 13369, 13944, 14559, 15186, 15853, 16527, 17223, 17885, 18530, 19191, 19830]",,"[70, 70, 70, 70, 70, 70, 70, 70, 70, 70, 70, 70, 70, 70, 70, 70, 70, 70, 70, 70, 70, 70, 70, 70, 70, 70, 70, 70, 70, 70, 70]",,,False,IT1,"[70 70 70 70 70 70 70 70 70 70 70 70 70 70 70 70 70 70 70 70 70 70 70 70
 70 70 70 70 70 70 70]","[  714  1416  2270  2978  3605  4209  4824  5416  6049  6693  7279  7889
  8615  9207  9781 10356 10954 11552 12156 12788 13369 13944 14559 15186
 15853 16527 17223 17885 18530 19191 19830]",627.0,6,0,0,29.0,0.8575777877659552,483.6458659652647,-69.03708417228557
audio-multiple-response,17,138917,0.0-6.0,50,"[491, 800, 1051, 1299, 1579, 1851, 2109, 2371, 2640, 2869, 3109, 3371, 3629, 3880, 4139, 4411, 4669, 4899, 5149, 5400, 5619, 5851, 6059, 6299, 6560, 6800, 7040, 7280, 7531, 7779, 8029, 8259, 8509, 8749, 8979, 9251, 9480, 9739, 10000, 10229, 10480, 10720, 10949, 11211, 11459, 11699, 11960, 12200, 12440, 12691, 12939, 13179, 13419, 13659, 13899, 14109, 14360, 14589, 14829, 15059, 15299, 15539, 15800, 16040, 16291, 16531, 16789, 16989, 17251, 17440, 17669, 17909, 18131, 18371, 18629, 18840, 19069, 19280, 19499, 19731, 19960]",,"[74, 74, 74, 74, 74, 74, 74, 74, 74, 74, 74, 74, 74, 74, 74, 74, 74, 74, 74, 74, 74, 74, 74, 74, 74, 74, 74, 74, 74, 74, 74, 74, 74, 74, 74, 74, 74, 74, 74, 74, 74, 74, 74, 74, 74, 74, 74, 74, 74, 74, 74, 74, 74, 74, 74, 74, 74, 74, 74, 74, 74, 74, 74, 74, 74, 74, 74, 74, 74, 74, 74, 74, 74, 74, 74, 74, 74, 74, 74, 74, 74]",,,False,IT1,"[74 74 74 74 74 74 74 74 74 74 74 74 74 74 74 74 74 74 74 74 74 74 74 74
 74 74 74 74 74 74 74 74 74 74 74 74 74 74 74 74 74 74 74 74 74 74 74 74
 74 74 74 74 74 74 74 74 74 74 74 74 74 74 74 74 74 74 74 74 74 74 74 74
 74 74 74 74 74 74 74 74 74]","[  491   800  1051  1299  1579  1851  2109  2371  2640  2869  3109  3371
  3629  3880  4139  4411  4669  4899  5149  5400  5619  5851  6059  6299
  6560  6800  7040  7280  7531  7779  8029  8259  8509  8749  8979  9251
  9480  9739 10000 10229 10480 10720 10949 11211 11459 11699 11960 12200
 12440 12691 12939 13179 13419 13659 13899 14109 14360 14589 14829 15059
 15299 15539 15800 16040 16291 16531 16789 16989 17251 17440 17669 17909
 18131 18371 18629 18840 19069 19280 19499 19731 19960]",240.0,6,0,0,27.0,0.9290867995981407,538.912508731197,-77.45436776930123
audio-multiple-response,17,125205,0.0-6.0,48,"[501, 1291, 2021, 2821, 3672, 4552, 5381, 6192, 7072, 7851, 8720, 9592, 10491, 11301, 12181, 13051, 13912, 14752, 15541, 16371, 17192, 18000, 18821, 19592]",,"[74, 74, 74, 74, 74, 74, 74, 74, 74, 74, 74, 74, 74, 74, 74, 74, 74, 74, 74, 74, 74, 74, 74, 74]",,,True,IT1,[74 74 74 74 74 74 74 74 74 74 74 74 74 74 74 74 74 74 74 74 74 74 74 74],"[  501  1291  2021  2821  3672  4552  5381  6192  7072  7851  8720  9592
 10491 11301 12181 13051 13912 14752 15541 16371 17192 18000 18821 19592]",829.0,5,0,1,35.0,0.9296732436320995,544.102865366262,-78.21513899176018
audio-multiple-response,17,128802,0.0-6.0,49,"[2699, 5957, 7381, 7573, 7776, 7957, 8203, 8640, 8853, 9093, 9520, 9797, 9963, 10144, 10320, 10528, 10715, 11477, 11840, 12149, 12448, 13019, 17147, 19717]",,"[74, 74, 74, 74, 74, 74, 74, 74, 74, 74, 74, 74, 74, 74, 74, 74, 74, 74, 70, 70, 70, 74, 74, 74]",,,False,IT1,[74 74 74 74 74 74 74 74 74 74 74 74 74 74 74 74 74 74 70 70 70 74 74 74],"[ 2699  5957  7381  7573  7776  7957  8203  8640  8853  9093  9520  9797
  9963 10144 10320 10528 10715 11477 11840 12149 12448 13019 17147 19717]",277.0,2,4,0,19.0,0.9434752621684597,470.9848355377865,-66.61702930757667
audio-multiple-response,17,111362,0.0-6.0,57,"[1088, 1307, 1552, 1792, 2000, 2192, 2395, 2592, 2816, 3024, 3227, 3435, 3632, 3856, 4112, 4347, 4533, 4896, 5061, 5253, 5445, 5643, 5824, 6021, 6224, 6400, 6581, 6768, 6949, 7147, 7344, 7547, 7739, 7947, 8123, 8325, 8512, 8704, 8891, 9088, 9259, 9456, 9637, 9824, 10005, 10213, 10405, 10587, 10800, 10971, 11163, 11355, 11531, 11717, 11899, 12091, 12261, 12448, 12635, 12816, 13003, 13173, 13344, 13520, 13675, 13872, 14187, 14379, 14565, 14747, 14944, 15115, 15296, 15477, 15664, 15888, 16059, 16245, 16619, 16763, 17248, 17440, 17627, 17803, 17973, 18203, 18405, 18597, 18773, 18960, 19163, 19360, 19584, 19739, 19936]",,"[74, 74, 74, 74, 74, 74, 74, 74, 74, 74, 74, 74, 74, 74, 74, 74, 74, 74, 74, 74, 74, 74, 74, 74, 74, 74, 74, 74, 74, 74, 74, 74, 74, 74, 74, 74, 74, 74, 74, 74, 74, 74, 74, 74, 74, 74, 74, 74, 74, 74, 74, 74, 74, 74, 74, 74, 74, 74, 74, 74, 74, 74, 74, 74, 74, 74, 74, 74, 74, 74, 74, 74, 74, 74, 74, 74, 74, 74, 74, 74, 74, 74, 74, 74, 74, 74, 74, 74, 74, 74, 74, 74, 74, 74, 74]",,,False,IT1,"[74 74 74 74 74 74 74 74 74 74 74 74 74 74 74 74 74 74 74 74 74 74 74 74
 74 74 74 74 74 74 74 74 74 74 74 74 74 74 74 74 74 74 74 74 74 74 74 74
 74 74 74 74 74 74 74 74 74 74 74 74 74 74 74 74 74 74 74 74 74 74 74 74
 74 74 74 74 74 74 74 74 74 74 74 74 74 74 74 74 74 74 74 74 74 74 74]","[ 1088  1307  1552  1792  2000  2192  2395  2592  2816  3024  3227  3435
  3632  3856  4112  4347  4533  4896  5061  5253  5445  5643  5824  6021
  6224  6400  6581  6768  6949  7147  7344  7547  7739  7947  8123  8325
  8512  8704  8891  9088  9259  9456  9637  9824 10005 10213 10405 10587
 10800 10971 11163 11355 11531 11717 11899 12091 12261 12448 12635 12816
 13003 13173 13344 13520 13675 13872 14187 14379 14565 14747 14944 15115
 15296 15477 15664 15888 16059 16245 16619 16763 17248 17440 17627 17803
 17973 18203 18405 18597 18773 18960 19163 19360 19584 19739 19936]",192.0,6,0,0,7.0,0.7710162115219439,447.35051953262985,-61.63683410317496
audio-multiple-response,17,141394,0.0-6.0,58,"[600, 1160, 1461, 1669, 1851, 1989, 2149, 2280, 2421, 2560, 2709, 2840, 2989, 3131, 3309, 3469, 3621, 3781, 3941, 4109, 4320, 4501, 4661, 4840, 5141, 5421, 5709, 5989, 6331, 6651, 6989, 7371, 7701, 8160, 8531, 8861, 9280, 9680, 10069, 10461, 10811, 11171, 11520, 11909, 12261, 12640, 13000, 13360, 13741, 14101, 14491, 14840, 15200, 15581, 15941, 16291, 16669, 17011, 17381, 17749, 18109, 18469, 18840, 19200, 19581, 19949]",,"[74, 74, 74, 74, 74, 74, 74, 74, 74, 74, 74, 74, 74, 74, 74, 74, 74, 74, 74, 74, 74, 74, 74, 74, 74, 74, 74, 74, 74, 74, 74, 74, 74, 74, 74, 74, 74, 74, 74, 74, 74, 74, 74, 74, 74, 74, 74, 74, 74, 74, 74, 74, 74, 74, 74, 74, 74, 74, 74, 74, 74, 74, 74, 74, 74, 74]",,,True,IT1,"[74 74 74 74 74 74 74 74 74 74 74 74 74 74 74 74 74 74 74 74 74 74 74 74
 74 74 74 74 74 74 74 74 74 74 74 74 74 74 74 74 74 74 74 74 74 74 74 74
 74 74 74 74 74 74 74 74 74 74 74 74 74 74 74 74 74 74]","[  600  1160  1461  1669  1851  1989  2149  2280  2421  2560  2709  2840
  2989  3131  3309  3469  3621  3781  3941  4109  4320  4501  4661  4840
  5141  5421  5709  5989  6331  6651  6989  7371  7701  8160  8531  8861
  9280  9680 10069 10461 10811 11171 11520 11909 12261 12640 13000 13360
 13741 14101 14491 14840 15200 15581 15941 16291 16669 17011 17381 17749
 18109 18469 18840 19200 19581 19949]",349.0,2,2,2,63.0,0.6542157053586546,376.0995445051373,-49.57660014743054
audio-multiple-response,17,112889,0.0-6.0,59,"[341, 560, 760, 949, 1149, 1341, 1541, 1720, 1931, 2120, 2320, 2501, 2691, 2861, 3051, 3229, 3421, 3611, 3800, 3989, 4171, 4360, 4531, 4720, 4901, 5091, 5269, 5451, 5640, 5821, 6000, 6189, 6381, 6571, 6749, 6931, 7131, 7309, 7501, 7691, 7880, 8069, 8280, 8461, 8651, 8851, 9029, 9229, 9411, 9611, 9800, 9981, 10171, 10349, 10549, 10731, 10931, 11109, 11301, 11491, 11680, 11880, 12069, 12261, 12461, 12661, 12851, 13040, 13229, 13421, 13611, 13800, 13989, 14181, 14381, 14581, 14771, 14949, 15141, 15331, 15520, 15720, 15901, 16080, 16269, 16461, 16651, 16851, 17040, 17221, 17411, 17589, 17781, 17981, 18171, 18349, 18531, 18720, 18901, 19091, 19291, 19480, 19669, 19861]",,"[70, 70, 70, 70, 70, 70, 70, 70, 70, 70, 70, 70, 70, 70, 70, 70, 70, 70, 70, 70, 70, 70, 70, 70, 70, 70, 70, 70, 70, 70, 70, 70, 70, 70, 70, 70, 70, 70, 70, 70, 70, 70, 70, 70, 70, 70, 70, 70, 70, 70, 70, 70, 70, 70, 70, 70, 70, 70, 70, 70, 70, 70, 70, 70, 70, 70, 70, 70, 70, 70, 70, 70, 70, 70, 70, 70, 70, 70, 70, 70, 70, 70, 70, 70, 70, 70, 70, 70, 70, 70, 70, 70, 70, 70, 70, 70, 70, 70, 70, 70, 70, 70, 70, 70]",,,False,IT1,"[70 70 70 70 70 70 70 70 70 70 70 70 70 70 70 70 70 70 70 70 70 70 70 70
 70 70 70 70 70 70 70 70 70 70 70 70 70 70 70 70 70 70 70 70 70 70 70 70
 70 70 70 70 70 70 70 70 70 70 70 70 70 70 70 70 70 70 70 70 70 70 70 70
 70 70 70 70 70 70 70 70 70 70 70 70 70 70 70 70 70 70 70 70 70 70 70 70
 70 70 70 70 70 70 70 70]","[  341   560   760   949  1149  1341  1541  1720  1931  2120  2320  2501
  2691  2861  3051  3229  3421  3611  3800  3989  4171  4360  4531  4720
  4901  5091  5269  5451  5640  5821  6000  6189  6381  6571  6749  6931
  7131  7309  7501  7691  7880  8069  8280  8461  8651  8851  9029  9229
  9411  9611  9800  9981 10171 10349 10549 10731 10931 11109 11301 11491
 11680 11880 12069 12261 12461 12661 12851 13040 13229 13421 13611 13800
 13989 14181 14381 14581 14771 14949 15141 15331 15520 15720 15901 16080
 16269 16461 16651 16851 17040 17221 17411 17589 17781 17981 18171 18349
 18531 18720 18901 19091 19291 19480 19669 19861]",189.0,4,2,0,19.0,0.9554423576259622,520.8925382964975,-74.47975978718624
audio-multiple-response,17,155176,0.0-6.0,61,"[579, 760, 920, 1120, 1309, 1499, 1691, 1891, 2080, 2280, 2480, 2669, 2909, 3131, 3349, 3539, 3749, 3949, 4149, 4349, 4560, 4760, 4971, 5160, 5379, 5589, 5819, 6019, 6240, 6440, 6669, 6869, 7080, 7280, 7509, 7699, 7909, 8131, 8349, 8549, 8771, 8971, 9179, 9379, 9600, 9779, 9989, 10211, 10400, 10640, 10840, 11109, 11320, 11560, 11771, 12019, 12229, 12459, 12699, 12920, 13131, 13360, 13560, 13789, 14000, 14219, 14429, 14651, 14880, 15080, 15339, 15531, 15749, 15971, 16189, 16419, 16619, 16859, 17080, 17309, 17531, 17731, 17960, 18189, 18400, 18659, 18899, 19120, 19371, 19571, 19779]",,"[74, 74, 74, 74, 74, 74, 74, 74, 74, 74, 74, 74, 74, 74, 74, 74, 74, 74, 74, 74, 74, 74, 74, 74, 74, 74, 74, 74, 74, 74, 74, 74, 74, 74, 74, 74, 74, 74, 74, 74, 74, 74, 74, 74, 74, 74, 74, 74, 74, 74, 74, 74, 74, 74, 74, 74, 74, 74, 74, 74, 74, 74, 74, 74, 74, 74, 74, 74, 74, 74, 74, 74, 74, 74, 74, 74, 74, 74, 74, 74, 74, 74, 74, 74, 74, 74, 74, 74, 74, 74, 74]",,,False,IT1,"[74 74 74 74 74 74 74 74 74 74 74 74 74 74 74 74 74 74 74 74 74 74 74 74
 74 74 74 74 74 74 74 74 74 74 74 74 74 74 74 74 74 74 74 74 74 74 74 74
 74 74 74 74 74 74 74 74 74 74 74 74 74 74 74 74 74 74 74 74 74 74 74 74
 74 74 74 74 74 74 74 74 74 74 74 74 74 74 74 74 74 74 74]","[  579   760   920  1120  1309  1499  1691  1891  2080  2280  2480  2669
  2909  3131  3349  3539  3749  3949  4149  4349  4560  4760  4971  5160
  5379  5589  5819  6019  6240  6440  6669  6869  7080  7280  7509  7699
  7909  8131  8349  8549  8771  8971  9179  9379  9600  9779  9989 10211
 10400 10640 10840 11109 11320 11560 11771 12019 12229 12459 12699 12920
 13131 13360 13560 13789 14000 14219 14429 14651 14880 15080 15339 15531
 15749 15971 16189 16419 16619 16859 17080 17309 17531 17731 17960 18189
 18400 18659 18899 19120 19371 19571 19779]",211.0,6,0,0,17.0,0.9473838183572915,466.4847704354953,-65.70883088235465
audio-multiple-response,17,211850,0.0-6.0,60,"[499, 691, 848, 998, 1161, 1503, 1683, 1834, 2014, 2194, 2368, 2537, 2723, 2897, 3071, 3251, 3419, 3587, 3762, 3930, 4104, 4290, 4481, 4667, 4847, 5033, 5201, 5375, 5561, 5747, 5939, 6113, 6287, 6473, 6647, 6827, 7007, 7192, 7367, 7552, 7744, 7935, 8121, 8307, 8499, 8678, 8864, 9067, 9224, 9398, 9578, 9770, 9956, 10153, 10350, 10559, 10751, 10942, 11151, 11343, 11552, 11755, 11947, 12138, 12347, 12539, 12748, 12951, 13160, 13363, 13543, 13729, 13926, 14129, 14321, 14518, 14710, 14907, 15087, 15279, 15482, 15656, 15848, 16051, 16242, 16434, 16625, 16817, 17014, 17218, 17415, 17624, 17839, 18042, 18239, 18448, 18657, 18855, 19058, 19249, 19441, 19638, 19859]",,"[74, 74, 74, 74, 74, 74, 74, 74, 74, 74, 74, 74, 74, 74, 74, 74, 74, 74, 74, 74, 74, 74, 74, 74, 74, 74, 74, 74, 74, 74, 74, 74, 74, 74, 74, 74, 74, 74, 74, 74, 74, 74, 74, 74, 74, 74, 74, 74, 74, 74, 74, 74, 74, 74, 74, 74, 74, 74, 74, 74, 74, 74, 74, 74, 74, 74, 74, 74, 74, 74, 74, 74, 74, 74, 74, 74, 74, 74, 74, 74, 74, 74, 74, 74, 74, 74, 74, 74, 74, 74, 74, 74, 74, 74, 74, 74, 74, 74, 74, 74, 74, 74, 74]",,,False,IT1,"[74 74 74 74 74 74 74 74 74 74 74 74 74 74 74 74 74 74 74 74 74 74 74 74
 74 74 74 74 74 74 74 74 74 74 74 74 74 74 74 74 74 74 74 74 74 74 74 74
 74 74 74 74 74 74 74 74 74 74 74 74 74 74 74 74 74 74 74 74 74 74 74 74
 74 74 74 74 74 74 74 74 74 74 74 74 74 74 74 74 74 74 74 74 74 74 74 74
 74 74 74 74 74 74 74]","[  499   691   848   998  1161  1503  1683  1834  2014  2194  2368  2537
  2723  2897  3071  3251  3419  3587  3762  3930  4104  4290  4481  4667
  4847  5033  5201  5375  5561  5747  5939  6113  6287  6473  6647  6827
  7007  7192  7367  7552  7744  7935  8121  8307  8499  8678  8864  9067
  9224  9398  9578  9770  9956 10153 10350 10559 10751 10942 11151 11343
 11552 11755 11947 12138 12347 12539 12748 12951 13160 13363 13543 13729
 13926 14129 14321 14518 14710 14907 15087 15279 15482 15656 15848 16051
 16242 16434 16625 16817 17014 17218 17415 17624 17839 18042 18239 18448
 18657 18855 19058 19249 19441 19638 19859]",191.0,1,0,5,7.0,0.9231331443875429,560.7983560334883,-81.77690374885515
audio-multiple-response,17,160550,0.0-6.0,62,"[447, 981, 1533, 2101, 2664, 3204, 3773, 4331, 4870, 5428, 5968, 6519, 7076, 7668, 8295, 8853, 9445, 9956, 10536, 11093, 11651, 12243, 12806, 13369, 13932, 14547, 15093, 15697, 16254, 16788, 17345, 17926, 18500, 19075, 19644]",,"[74, 74, 74, 74, 74, 74, 74, 74, 74, 74, 74, 74, 74, 74, 74, 74, 74, 74, 74, 74, 74, 74, 74, 74, 74, 74, 74, 74, 74, 74, 74, 74, 74, 74, 74]",,,False,IT1,"[74 74 74 74 74 74 74 74 74 74 74 74 74 74 74 74 74 74 74 74 74 74 74 74
 74 74 74 74 74 74 74 74 74 74 74]","[  447   981  1533  2101  2664  3204  3773  4331  4870  5428  5968  6519
  7076  7668  8295  8853  9445  9956 10536 11093 11651 12243 12806 13369
 13932 14547 15093 15697 16254 16788 17345 17926 18500 19075 19644]",560.5,5,0,1,34.0,0.9629707053751351,624.1114072211251,-90.90558496172008
audio-multiple-response,17,227121,0.0-6.0,67,"[331, 952, 1324, 1695, 2026, 2392, 2752, 3100, 3460, 3791, 4122, 4476, 4812, 5178, 5497, 5857, 6200, 6531, 6885, 7221, 7541, 7872, 8202, 8551, 8887, 9230, 9572, 9892, 10228, 10571, 10867, 11169, 11500, 11848, 12167, 12504, 12829, 13154, 13473, 13793, 14100, 14408, 14733, 15041, 15354, 15662, 15975, 16289, 16608, 16910, 17212, 17531, 17827, 18123, 18390, 18680, 19023, 19331, 19656, 19952]",,"[74, 74, 74, 74, 74, 74, 74, 74, 74, 74, 74, 74, 74, 74, 74, 74, 74, 74, 74, 74, 74, 74, 74, 74, 74, 74, 74, 74, 74, 74, 74, 74, 74, 74, 74, 74, 74, 74, 74, 74, 74, 74, 74, 74, 74, 74, 74, 74, 74, 74, 74, 74, 74, 74, 74, 74, 74, 74, 74, 74]",,,True,IT1,"[74 74 74 74 74 74 74 74 74 74 74 74 74 74 74 74 74 74 74 74 74 74 74 74
 74 74 74 74 74 74 74 74 74 74 74 74 74 74 74 74 74 74 74 74 74 74 74 74
 74 74 74 74 74 74 74 74 74 74 74 74]","[  331   952  1324  1695  2026  2392  2752  3100  3460  3791  4122  4476
  4812  5178  5497  5857  6200  6531  6885  7221  7541  7872  8202  8551
  8887  9230  9572  9892 10228 10571 10867 11169 11500 11848 12167 12504
 12829 13154 13473 13793 14100 14408 14733 15041 15354 15662 15975 16289
 16608 16910 17212 17531 17827 18123 18390 18680 19023 19331 19656 19952]",330.0,6,0,0,23.0,0.9381693928480029,523.5766711009915,-74.97285758382841
audio-multiple-response,17,88205,0.0-6.0,64,[nan],,[nan],,,False,IT1,[],[],,3,3,0,31.0,0.6714340878116108,195.80205753791205,-23.056683949627683
audio-multiple-response,17,135586,0.0-6.0,68,"[3349, 5640, 5829, 5971, 6099, 6211, 6331, 7509, 7931, 8349, 8760, 9160, 9600, 10019, 10429, 10829, 11240, 11651, 12109, 12520, 12949, 13339, 13739, 14149, 14589, 14971, 15371, 15771, 16179, 16571, 16931, 17360, 17701, 18109, 18491, 18869, 19211]",,"[74, 74, 74, 74, 74, 74, 74, 74, 74, 74, 74, 74, 74, 74, 74, 74, 74, 74, 74, 74, 74, 74, 74, 74, 74, 74, 74, 74, 74, 74, 74, 74, 74, 74, 74, 74, 74]",,,True,IT1,"[74 74 74 74 74 74 74 74 74 74 74 74 74 74 74 74 74 74 74 74 74 74 74 74
 74 74 74 74 74 74 74 74 74 74 74 74 74]","[ 3349  5640  5829  5971  6099  6211  6331  7509  7931  8349  8760  9160
  9600 10019 10429 10829 11240 11651 12109 12520 12949 13339 13739 14149
 14589 14971 15371 15771 16179 16571 16931 17360 17701 18109 18491 18869
 19211]",404.0,1,2,3,17.0,0.7129659898897724,257.2767693930205,-32.39664346191563
audio-multiple-response,17,352958,0.0-6.0,70,[nan],,[nan],,,True,IT1,[],[],,5,1,0,11.0,0.7442100310966193,435.6049496283181,-60.964880924517175
audio-multiple-response,17,102630,0.0-6.0,71,[nan],,[nan],,,False,IT1,[],[],,6,0,0,15.0,0.9267469672789105,416.1803067889514,-58.644008870436366
audio-multiple-response,17,108230,0.0-6.0,73,"[331, 476, 586, 720, 824, 940, 1068, 1167, 1277, 1393, 1509, 1620, 1753, 1852, 1985, 2107, 2229, 2386, 2525, 2647, 2769, 3001, 3251, 3390, 3529, 3669, 3802, 3942, 4075, 4220, 4365, 4516, 4656, 4807, 4963, 5108, 5254, 5404, 5538, 5689, 5840, 5985, 6147, 6287, 6426, 6594, 6751, 6908, 7059, 7210, 7361, 7517, 7680, 7796, 7959, 8121, 8278, 8411, 8580, 8696, 8847, 8957, 9091, 9207, 9352, 9480, 9607, 9747, 9892, 10043, 10176, 10321, 10437, 10582, 10745, 10908, 11047, 11215, 11372, 11505, 11639, 11802, 11929, 12057, 12185, 12318, 12481, 12626, 12771, 12934, 13073, 13224, 13398, 13549, 13717, 13845, 14007, 14182, 14338, 14530, 14698, 14867, 15186, 15354, 15505, 15650, 15790, 15940, 16086, 16248, 16405, 16556, 16713, 16875, 17090, 17241, 17421, 17578, 17868, 18036, 18204, 18373, 18553, 18733, 18930, 19075, 19215, 19371, 19499, 19667, 19778, 19946]",,"[74, 74, 74, 74, 74, 74, 74, 74, 74, 74, 74, 74, 74, 74, 74, 74, 74, 74, 74, 74, 74, 74, 74, 74, 74, 74, 74, 74, 74, 74, 74, 74, 74, 74, 74, 74, 74, 74, 74, 74, 74, 74, 74, 74, 74, 74, 74, 74, 74, 74, 74, 74, 74, 74, 74, 74, 74, 74, 74, 74, 74, 74, 74, 74, 74, 74, 74, 74, 74, 74, 74, 74, 74, 74, 74, 74, 74, 74, 74, 74, 74, 74, 74, 74, 74, 74, 74, 74, 74, 74, 74, 74, 74, 74, 74, 74, 74, 74, 74, 74, 74, 74, 74, 74, 74, 74, 74, 74, 74, 74, 74, 74, 74, 74, 74, 74, 74, 74, 74, 74, 74, 74, 74, 74, 74, 74, 74, 74, 74, 74, 74, 74]",,,False,IT1,"[74 74 74 74 74 74 74 74 74 74 74 74 74 74 74 74 74 74 74 74 74 74 74 74
 74 74 74 74 74 74 74 74 74 74 74 74 74 74 74 74 74 74 74 74 74 74 74 74
 74 74 74 74 74 74 74 74 74 74 74 74 74 74 74 74 74 74 74 74 74 74 74 74
 74 74 74 74 74 74 74 74 74 74 74 74 74 74 74 74 74 74 74 74 74 74 74 74
 74 74 74 74 74 74 74 74 74 74 74 74 74 74 74 74 74 74 74 74 74 74 74 74
 74 74 74 74 74 74 74 74 74 74 74 74]","[  331   476   586   720   824   940  1068  1167  1277  1393  1509  1620
  1753  1852  1985  2107  2229  2386  2525  2647  2769  3001  3251  3390
  3529  3669  3802  3942  4075  4220  4365  4516  4656  4807  4963  5108
  5254  5404  5538  5689  5840  5985  6147  6287  6426  6594  6751  6908
  7059  7210  7361  7517  7680  7796  7959  8121  8278  8411  8580  8696
  8847  8957  9091  9207  9352  9480  9607  9747  9892 10043 10176 10321
 10437 10582 10745 10908 11047 11215 11372 11505 11639 11802 11929 12057
 12185 12318 12481 12626 12771 12934 13073 13224 13398 13549 13717 13845
 14007 14182 14338 14530 14698 14867 15186 15354 15505 15650 15790 15940
 16086 16248 16405 16556 16713 16875 17090 17241 17421 17578 17868 18036
 18204 18373 18553 18733 18930 19075 19215 19371 19499 19667 19778 19946]",146.0,6,0,0,24.0,0.950023474104558,607.833159689378,-88.65766610520953
audio-multiple-response,17,181762,0.0-6.0,74,"[749, 1560, 2381, 3181, 4080, 4869, 5720, 6531, 7400, 8240, 9051, 9829, 10640, 11451, 12240, 13040, 13869, 14731, 15581, 16491, 17200, 18011, 18861, 19656]",,"[74, 74, 74, 74, 74, 74, 74, 74, 74, 74, 74, 74, 74, 74, 74, 74, 74, 74, 74, 74, 74, 74, 74, 74]",,,True,IT1,[74 74 74 74 74 74 74 74 74 74 74 74 74 74 74 74 74 74 74 74 74 74 74 74],"[  749  1560  2381  3181  4080  4869  5720  6531  7400  8240  9051  9829
 10640 11451 12240 13040 13869 14731 15581 16491 17200 18011 18861 19656]",811.0,6,0,0,25.0,0.872533366620998,497.4109814569758,-70.96013359938793
audio-multiple-response,17,113982,0.0-6.0,76,"[792, 981, 1251, 1512, 1741, 2461, 2661, 2872, 3091, 3291, 3512, 3731, 3952, 4200, 4411, 4632, 4851, 5072, 5291, 5520, 5731, 5941, 6160, 6392, 6600, 6811, 7040, 7240, 7451, 7640, 7851, 8061, 8280, 8461, 8701, 8912, 9112, 9341, 9552, 9760, 9981, 10192, 10381, 10600, 10821, 11032, 11251, 11461, 11701, 11931, 12112, 12341, 12552, 12741, 12952, 13120, 13352, 13571, 13741, 13981, 14181, 14371, 14581, 14792, 15011, 15221, 15432, 15651, 15861, 16072, 16261, 16440, 16661, 16861, 17072, 17280, 17472, 17701, 17912, 18120, 18312, 18520, 18731, 18931, 19152, 19352, 19552, 19731, 19912]",,"[74, 74, 74, 74, 74, 74, 74, 74, 74, 74, 74, 74, 74, 74, 74, 74, 74, 74, 74, 74, 74, 74, 74, 74, 74, 74, 74, 74, 74, 74, 74, 74, 74, 74, 74, 74, 74, 74, 74, 74, 74, 74, 74, 74, 74, 74, 74, 74, 74, 74, 74, 74, 74, 74, 74, 74, 74, 74, 74, 74, 74, 74, 74, 74, 74, 74, 74, 74, 74, 74, 74, 74, 74, 74, 74, 74, 74, 74, 74, 74, 74, 74, 74, 74, 74, 74, 74, 74, 74]",,,True,IT1,"[74 74 74 74 74 74 74 74 74 74 74 74 74 74 74 74 74 74 74 74 74 74 74 74
 74 74 74 74 74 74 74 74 74 74 74 74 74 74 74 74 74 74 74 74 74 74 74 74
 74 74 74 74 74 74 74 74 74 74 74 74 74 74 74 74 74 74 74 74 74 74 74 74
 74 74 74 74 74 74 74 74 74 74 74 74 74 74 74 74 74]","[  792   981  1251  1512  1741  2461  2661  2872  3091  3291  3512  3731
  3952  4200  4411  4632  4851  5072  5291  5520  5731  5941  6160  6392
  6600  6811  7040  7240  7451  7640  7851  8061  8280  8461  8701  8912
  9112  9341  9552  9760  9981 10192 10381 10600 10821 11032 11251 11461
 11701 11931 12112 12341 12552 12741 12952 13120 13352 13571 13741 13981
 14181 14371 14581 14792 15011 15221 15432 15651 15861 16072 16261 16440
 16661 16861 17072 17280 17472 17701 17912 18120 18312 18520 18731 18931
 19152 19352 19552 19731 19912]",211.0,6,0,0,36.0,0.8985813032499076,538.8652097611323,-77.22344872736616
