experiment,subject,pitch,ioi,tempo,tempo_range,loudness,tap_condition,key_press,tap_times,true_score,response,rt,error,tapped,tap_type,block,trial,test_correct,test_incorrect,test_skipped,extreme_responses,pearsonr,intercept,slope,residual,illusory_tempo,cooks
ITLT,2,7,302,198.67549668874173,5,2,True,"[74, 74, 74, 74, 74]","[341, 683, 907, 1157, 1403]",93.24415345434716,86.0,4031.6400000010617,-7.244153454347156,True,2,0,1,6,0,0,18.0,0.9341539872436123,48.989465613196316,39.72248949784458,2.6552257581340086,6.684439449038275,0.00013876931447520435
ITLT,2,4,463,129.58963282937364,4,1,True,"[74, 74, 74, 74, 74]","[384, 864, 1211, 1584, 2005]",62.42097125758927,71.0,4149.534999975003,8.579028742410728,True,2,0,2,6,0,0,18.0,0.9341539872436123,48.989465613196316,39.72248949784458,12.1426963801513,30.56882016624408,0.0113388410987629
ITLT,2,6,358,167.5977653631285,5,2,True,"[74, 74, 74, 74]","[320, 576, 869, 1243]",80.97360155738828,85.0,2671.2899999693036,4.026398442611722,True,2,0,3,6,0,0,18.0,0.9341539872436123,48.989465613196316,39.72248949784458,11.403563135328113,28.708077664535338,0.018184975222170385
ITLT,2,3,599,100.1669449081803,3,0,True,"[74, 74, 74, 74]","[288, 917, 1451, 2085]",43.84378078116181,29.0,2807.3800000129268,-14.843780781161811,True,2,0,4,6,0,0,18.0,0.9341539872436123,48.989465613196316,39.72248949784458,-15.098658547861739,-38.010353174568834,0.02251188978445618
ITLT,2,4,358,167.5977653631285,5,1,True,"[74, 74, 74, 74]","[651, 939, 1136, 1397]",80.97360155738828,80.0,2564.5450000301935,-0.9736015573882781,True,2,0,5,6,0,0,18.0,0.9341539872436123,48.989465613196316,39.72248949784458,6.403563135328113,16.12074977243202,0.004206313551945801
ITLT,2,6,918,65.359477124183,1,2,True,"[74, 74, 74]","[368, 651, 2197]",13.046873249910696,7.0,2396.920000028331,-6.046873249910696,True,2,0,6,6,0,0,18.0,0.9341539872436123,48.989465613196316,39.72248949784458,-12.632061828337477,-31.80078083732118,0.04322574574130009
ITLT,2,5,358,167.5977653631285,5,0,True,"[74, 74, 74, 74]","[336, 832, 1179, 1552]",80.97360155738828,93.0,3121.4200000395067,12.026398442611722,True,2,0,7,6,0,0,18.0,0.9341539872436123,48.989465613196316,39.72248949784458,19.403563135328113,48.847802291900635,0.06093225965158948
ITLT,2,6,390,153.84615384615384,4,1,True,"[74, 74, 74, 74]","[288, 715, 1019, 1408]",74.79787473312055,65.0,2999.690000026021,-9.797874733120551,True,2,0,8,6,0,0,18.0,0.9341539872436123,48.989465613196316,39.72248949784458,-3.690131986301253,-9.289780255342475,0.004406215475549792
ITLT,2,3,774,77.51937984496124,2,0,True,"[74, 74, 74]","[549, 1877, 2731]",25.354902613380577,19.0,2457.2799999732524,-6.3549026133805775,True,2,0,9,6,0,0,18.0,0.9341539872436123,48.989465613196316,39.72248949784458,-10.41017317092938,-26.207252623212995,0.01927125125004104
ITLT,2,5,463,129.58963282937364,4,1,True,"[74, 74, 74, 74]","[421, 800, 1147, 1568]",62.42097125758927,75.0,2576.7699999851175,12.579028742410728,True,2,0,10,6,0,0,18.0,0.9341539872436123,48.989465613196316,39.72248949784458,16.1426963801513,40.63868247992673,0.021400102922154097
ITLT,2,2,843,71.17437722419929,1,1,True,"[74, 74, 74]","[283, 805, 1957]",19.194949373496982,21.0,2122.8050000499934,1.805050626503018,True,2,0,11,6,0,0,18.0,0.9341539872436123,48.989465613196316,39.72248949784458,-3.516399613359585,-8.852414986604483,0.003439413704859033
ITLT,2,3,390,153.84615384615384,4,2,True,"[74, 74, 74, 74]","[331, 752, 1040, 1397]",74.79787473312055,67.0,2716.599999985192,-7.797874733120551,True,2,0,12,6,0,0,18.0,0.9341539872436123,48.989465613196316,39.72248949784458,-1.6901319863012532,-4.254849098501148,0.0017281355663947872
ITLT,2,5,1000,60.0,1,0,True,"[74, 74, 74]","[363, 747, 2229]",6.875176187496734,28.0,2079.0999999735504,21.124823812503266,True,2,0,13,6,0,0,18.0,0.9341539872436123,48.989465613196316,39.72248949784458,13.271041606574862,33.409390434340665,0.05124849160222141
ITLT,2,2,774,77.51937984496124,2,0,True,"[74, 74, 74]","[395, 1397, 2181]",25.354902613380577,34.0,9287.21499996027,8.645097386619423,True,2,0,14,6,0,0,18.0,0.9341539872436123,48.989465613196316,39.72248949784458,4.589826829070621,11.554731053096946,0.0022264435693513957
ITLT,2,3,918,65.359477124183,1,0,True,"[74, 74]","[373, 1291]",13.046873249910696,29.0,2084.3800000147894,15.953126750089304,True,2,0,15,6,0,0,18.0,0.9341539872436123,48.989465613196316,39.72248949784458,9.367938171662523,23.5834618879334,0.019221915074767688
ITLT,2,5,710,84.50704225352112,2,0,True,"[74, 74, 74, 74, 74]","[235, 891, 1717, 2400, 3024]",31.580629700998873,36.0,5267.005000030622,4.419370299001127,True,2,0,16,6,0,0,18.0,0.9341539872436123,48.989465613196316,39.72248949784458,1.6437992519833386,4.138208034701688,6.807988446027017e-05
ITLT,2,7,463,129.58963282937364,4,0,True,"[74, 74, 74, 74]","[331, 763, 1184, 1669]",62.42097125758927,50.0,1399.0799999446608,-12.420971257589272,True,2,0,17,6,0,0,18.0,0.9341539872436123,48.989465613196316,39.72248949784458,-8.8573036198487,-22.297956980589838,0.0105033125184853
ITLT,2,2,599,100.1669449081803,3,1,True,"[74, 74, 74, 74]","[5, 821, 1397, 1904]",43.84378078116181,45.0,2786.695000017062,1.1562192188381886,True,2,0,18,6,0,0,18.0,0.9341539872436123,48.989465613196316,39.72248949784458,0.9013414521382614,2.2690960801617686,3.818074624220238e-06
ITLT,2,7,652,92.02453987730061,2,1,True,"[74, 74, 74, 74, 74]","[251, 848, 1525, 2149, 2747]",37.727982709047225,47.0,3558.1549999769777,9.272017290952775,True,2,0,19,6,0,0,18.0,0.9341539872436123,48.989465613196316,39.72248949784458,7.760035945948459,19.535623381232273,0.004518070266494503
ITLT,2,2,463,129.58963282937364,4,0,True,"[74, 74, 74, 74, 74]","[304, 773, 1120, 1552, 1952]",62.42097125758927,56.0,2505.2750000031665,-6.420971257589272,True,2,0,20,6,0,0,18.0,0.9341539872436123,48.989465613196316,39.72248949784458,-2.8573036198487003,-7.193163510065862,0.001830132799845843
ITLT,2,6,550,109.0909090909091,3,1,True,"[74, 74, 74, 74]","[341, 747, 1317, 1845]",50.0,50.0,2080.169999971986,0.0,True,2,0,21,6,0,0,18.0,0.9341539872436123,48.989465613196316,39.72248949784458,1.010534386803684,2.543985534588706,3.6144560473582735e-06
ITLT,2,7,1000,60.0,1,1,True,"[74, 74, 74, 74, 74]","[309, 661, 1392, 2251, 3275]",6.875176187496734,28.0,2127.919999998994,21.124823812503266,True,2,0,22,6,0,0,18.0,0.9341539872436123,48.989465613196316,39.72248949784458,13.271041606574862,33.409390434340665,0.05124849160222141
ITLT,2,4,774,77.51937984496124,2,1,True,"[74, 74, 74, 74]","[352, 869, 1947, 2715]",25.354902613380577,33.0,2526.025000028312,7.6450973866194225,True,2,0,23,6,0,0,18.0,0.9341539872436123,48.989465613196316,39.72248949784458,3.5898268290706206,9.037265474676284,0.0012099820209440439
ITLT,2,7,599,100.1669449081803,3,0,True,"[74, 74, 74, 74]","[299, 987, 1397, 2016]",43.84378078116181,50.0,976.4350000186823,6.156219218838189,True,2,0,24,6,0,0,18.0,0.9341539872436123,48.989465613196316,39.72248949784458,5.9013414521382614,14.856423972265082,0.0019645081578722285
ITLT,2,6,652,92.02453987730061,2,2,True,"[74, 74, 74, 74]","[240, 757, 1467, 2165]",37.727982709047225,50.0,2776.9049999769777,12.272017290952775,True,2,0,25,6,0,0,18.0,0.9341539872436123,48.989465613196316,39.72248949784458,10.76003594594846,27.08802011649426,0.00942144478458952
ITLT,2,4,550,109.0909090909091,3,2,True,"[74, 74, 74, 74, 74]","[272, 880, 1365, 1856, 2379]",50.0,50.0,1086.684999987483,0.0,True,2,0,26,6,0,0,18.0,0.9341539872436123,48.989465613196316,39.72248949784458,1.010534386803684,2.543985534588706,3.6144560473582735e-06
ITLT,2,2,358,167.5977653631285,5,0,True,"[74, 74, 74]","[363, 757, 1456]",80.97360155738828,62.0,2597.7399999974295,-18.973601557388278,True,2,0,27,6,0,0,18.0,0.9341539872436123,48.989465613196316,39.72248949784458,-11.596436864671887,-29.193630639139904,0.03501688407204828
ITLT,2,4,1000,60.0,1,2,True,"[74, 74]","[187, 672]",6.875176187496734,26.0,2097.3349999985658,19.124823812503266,True,2,0,28,6,0,0,18.0,0.9341539872436123,48.989465613196316,39.72248949784458,11.271041606574862,28.37445927749934,0.03649923720571409
ITLT,2,3,329,182.370820668693,5,2,True,"[74, 74]","[165, 704]",87.06720173383901,69.0,2256.935000012163,-18.067201733839013,True,2,0,29,6,0,0,18.0,0.9341539872436123,48.989465613196316,39.72248949784458,-9.43749624493445,-23.75857194309674,0.03174789662823414
ITLT,2,5,599,100.1669449081803,3,0,True,"[74, 74, 74, 74]","[48, 613, 1269, 1877]",43.84378078116181,50.0,464.50499998172745,6.156219218838189,True,2,0,30,6,0,0,18.0,0.9341539872436123,48.989465613196316,39.72248949784458,5.9013414521382614,14.856423972265082,0.0019645081578722285
ITLT,2,7,358,167.5977653631285,5,0,True,"[74, 74, 74]","[240, 677, 1008]",80.97360155738828,61.0,2584.310000005644,-19.973601557388278,True,2,1,31,6,0,0,18.0,0.9341539872436123,48.989465613196316,39.72248949784458,-12.596436864671887,-31.71109621756057,0.04045211213989287
ITLT,2,2,390,153.84615384615384,4,2,True,,,74.79787473312055,63.0,2852.3799999966286,-11.797874733120551,False,1,1,32,6,0,0,18.0,0.9341539872436123,48.989465613196316,39.72248949784458,-5.690131986301253,-14.324711412183799,0.008315216766661726
ITLT,2,4,652,92.02453987730061,2,0,True,,,37.727982709047225,35.0,3074.6799999615178,-2.7279827090472253,False,1,1,33,6,0,0,18.0,0.9341539872436123,48.989465613196316,39.72248949784458,-4.239964054051541,-10.67396355981568,0.0027220790822343115
ITLT,2,2,329,182.370820668693,5,2,True,,,87.06720173383901,79.0,2800.0400000019,-8.067201733839013,False,1,1,34,6,0,0,18.0,0.9341539872436123,48.989465613196316,39.72248949784458,0.5625037550655492,1.4160838411098875,0.0004295028073284937
ITLT,2,3,425,141.1764705882353,4,1,True,,,68.5984388693479,67.0,2895.6149999867193,-1.598438869347902,False,1,1,35,6,0,0,18.0,0.9341539872436123,48.989465613196316,39.72248949784458,3.2350085335241587,8.144022629044176,0.00034479023804019225
ITLT,2,5,843,71.17437722419929,1,1,True,,,19.194949373496982,24.0,2181.7300000111572,4.805050626503018,False,1,1,36,6,0,0,18.0,0.9341539872436123,48.989465613196316,39.72248949784458,-0.5163996133595852,-1.3000182513424947,0.0002780593706414124
ITLT,2,6,463,129.58963282937364,4,0,True,,,62.42097125758927,50.0,1563.4350000182167,-12.420971257589272,False,1,1,37,6,0,0,18.0,0.9341539872436123,48.989465613196316,39.72248949784458,-8.8573036198487,-22.297956980589838,0.0105033125184853
ITLT,2,2,1000,60.0,1,0,True,,,6.875176187496734,24.0,1864.4600000116043,17.124823812503266,False,1,1,38,6,0,0,18.0,0.9341539872436123,48.989465613196316,39.72248949784458,9.271041606574862,23.339528120658017,0.02424690394920925
ITLT,2,4,390,153.84615384615384,4,0,True,,,74.79787473312055,63.0,2682.5499999686144,-11.797874733120551,False,1,1,39,6,0,0,18.0,0.9341539872436123,48.989465613196316,39.72248949784458,-5.690131986301253,-14.324711412183799,0.008315216766661726
ITLT,2,3,1000,60.0,1,1,True,,,6.875176187496734,19.0,2225.1149999792688,12.124823812503266,False,1,1,40,6,0,0,18.0,0.9341539872436123,48.989465613196316,39.72248949784458,4.271041606574862,10.7522002285547,0.004540100795457971
ITLT,2,2,710,84.50704225352112,2,1,True,,,31.580629700998873,42.0,5242.440000001807,10.419370299001127,False,1,1,41,6,0,0,18.0,0.9341539872436123,48.989465613196316,39.72248949784458,7.643799251983339,19.243001505225664,0.0055310229295827676
ITLT,2,6,302,198.67549668874173,5,0,True,,,93.24415345434716,74.0,2613.8999999966472,-19.244153454347156,False,1,1,42,6,0,0,18.0,0.9341539872436123,48.989465613196316,39.72248949784458,-9.344774241865991,-23.52514749200968,0.040061450539430714
ITLT,2,3,504,119.04761904761905,3,1,True,,,56.30039424560527,50.0,574.289999960456,-6.300394245605268,False,1,1,43,6,0,0,18.0,0.9341539872436123,48.989465613196316,39.72248949784458,-3.9948124982630304,-10.056802956621832,0.0024321177528404394
ITLT,2,4,918,65.359477124183,1,1,True,,,13.046873249910696,27.0,2386.0449999920093,13.953126750089304,False,1,1,44,6,0,0,18.0,0.9341539872436123,48.989465613196316,39.72248949784458,7.367938171662523,18.548530731092075,0.011478652150605626
ITLT,2,3,710,84.50704225352112,2,1,True,,,31.580629700998873,30.0,3368.6649999581277,-1.5806297009988732,False,1,1,45,6,0,0,18.0,0.9341539872436123,48.989465613196316,39.72248949784458,-4.356200748016661,-10.966585435822287,0.0033487910966251847
ITLT,2,5,550,109.0909090909091,3,2,True,,,50.0,50.0,602.7600000379607,0.0,False,1,1,46,6,0,0,18.0,0.9341539872436123,48.989465613196316,39.72248949784458,1.010534386803684,2.543985534588706,3.6144560473582735e-06
ITLT,2,7,710,84.50704225352112,2,2,True,,,31.580629700998873,44.0,2187.5399999553338,12.419370299001127,False,1,1,47,6,0,0,18.0,0.9341539872436123,48.989465613196316,39.72248949784458,9.643799251983339,24.277932662066988,0.0092950382240208
ITLT,2,6,843,71.17437722419929,1,1,True,,,19.194949373496982,32.0,2064.364999998361,12.805050626503018,False,1,1,48,6,0,0,18.0,0.9341539872436123,48.989465613196316,39.72248949784458,7.483600386640415,18.839706376022807,0.009072301098755108
ITLT,2,2,504,119.04761904761905,3,0,True,,,56.30039424560527,50.0,485.3199999779463,-6.300394245605268,False,1,1,49,6,0,0,18.0,0.9341539872436123,48.989465613196316,39.72248949784458,-3.9948124982630304,-10.056802956621832,0.0024321177528404394
ITLT,2,6,710,84.50704225352112,2,0,True,,,31.580629700998873,29.0,1660.3549999999814,-2.5806297009988732,False,1,1,50,6,0,0,18.0,0.9341539872436123,48.989465613196316,39.72248949784458,-5.356200748016661,-13.48405101424295,0.0047456537958889475
ITLT,2,7,504,119.04761904761905,3,1,True,,,56.30039424560527,50.0,740.3700000140816,-6.300394245605268,False,1,1,51,6,0,0,18.0,0.9341539872436123,48.989465613196316,39.72248949784458,-3.9948124982630304,-10.056802956621832,0.0024321177528404394
ITLT,2,3,358,167.5977653631285,5,0,True,,,80.97360155738828,82.0,2053.0000000144355,1.0263984426117219,False,1,1,52,6,0,0,18.0,0.9341539872436123,48.989465613196316,39.72248949784458,8.403563135328113,21.155680929273345,0.008621926734051419
ITLT,2,4,504,119.04761904761905,3,0,True,,,56.30039424560527,50.0,363.1300000124611,-6.300394245605268,False,1,1,53,6,0,0,18.0,0.9341539872436123,48.989465613196316,39.72248949784458,-3.9948124982630304,-10.056802956621832,0.0024321177528404394
ITLT,2,5,329,182.370820668693,5,1,True,,,87.06720173383901,78.0,2816.7199999443255,-9.067201733839013,False,1,1,54,6,0,0,18.0,0.9341539872436123,48.989465613196316,39.72248949784458,-0.43749624493445083,-1.1013817373107753,0.0013300568158385343
ITLT,2,6,599,100.1669449081803,3,0,True,,,43.84378078116181,50.0,875.0399999553338,6.156219218838189,False,1,1,55,6,0,0,18.0,0.9341539872436123,48.989465613196316,39.72248949784458,5.9013414521382614,14.856423972265082,0.0019645081578722285
ITLT,2,4,329,182.370820668693,5,0,True,,,87.06720173383901,73.0,1627.7899999986403,-14.067201733839013,False,1,1,56,6,0,0,18.0,0.9341539872436123,48.989465613196316,39.72248949784458,-5.437496244934451,-13.68870962941409,0.013270444770323821
ITLT,2,5,390,153.84615384615384,4,2,True,,,74.79787473312055,72.0,1829.410000005737,-2.797874733120551,False,1,1,57,6,0,0,18.0,0.9341539872436123,48.989465613196316,39.72248949784458,3.309868013698747,8.332478793602165,0.0004182168395688537
ITLT,2,7,918,65.359477124183,1,0,True,,,13.046873249910696,13.0,2482.959999993909,-0.0468732499106963,False,1,1,58,6,0,0,18.0,0.9341539872436123,48.989465613196316,39.72248949784458,-6.632061828337477,-16.695987366797205,0.012858216032467961
ITLT,2,5,652,92.02453987730061,2,1,True,,,37.727982709047225,37.0,2289.74500001641,-0.7279827090472253,False,1,1,59,6,0,0,18.0,0.9341539872436123,48.989465613196316,39.72248949784458,-2.2399640540515406,-5.639032402974355,0.0010416879587088037
ITLT,2,7,425,141.1764705882353,4,2,True,,,68.5984388693479,66.0,1717.8249999997206,-2.598438869347902,False,1,1,60,6,0,0,18.0,0.9341539872436123,48.989465613196316,39.72248949784458,2.2350085335241587,5.626557050623513,5.685353861837107e-05
ITLT,2,2,918,65.359477124183,1,2,True,,,13.046873249910696,16.0,1526.3300000224262,2.9531267500893037,False,1,2,61,6,0,0,18.0,0.9341539872436123,48.989465613196316,39.72248949784458,-3.632061828337477,-9.143590631535217,0.004374115988216682
ITLT,2,3,463,129.58963282937364,4,0,True,,,62.42097125758927,58.0,2119.025000021793,-4.420971257589272,False,1,2,62,6,0,0,18.0,0.9341539872436123,48.989465613196316,39.72248949784458,-0.8573036198487003,-2.158232353224536,0.0005234110572144404
ITLT,2,5,774,77.51937984496124,2,2,True,,,25.354902613380577,32.0,1301.7450000043027,6.6450973866194225,False,1,2,63,6,0,0,18.0,0.9341539872436123,48.989465613196316,39.72248949784458,2.5898268290706206,6.519799896255621,0.0005010607668871674
ITLT,2,2,425,141.1764705882353,4,1,True,,,68.5984388693479,72.0,2213.820000004489,3.401561130652098,False,1,2,64,6,0,0,18.0,0.9341539872436123,48.989465613196316,39.72248949784458,8.235008533524159,20.73135052114749,0.005433241671112278
ITLT,2,6,1000,60.0,1,0,True,,,6.875176187496734,5.0,1385.0200000451878,-1.8751761874967343,False,1,2,65,6,0,0,18.0,0.9341539872436123,48.989465613196316,39.72248949784458,-9.728958393425138,-24.492317869334578,0.032383679870036576
ITLT,2,2,652,92.02453987730061,2,2,True,,,37.727982709047225,32.0,1530.9899999992922,-5.727982709047225,False,1,2,66,6,0,0,18.0,0.9341539872436123,48.989465613196316,39.72248949784458,-7.239964054051541,-18.22636029507767,0.00672745800819923
ITLT,2,6,504,119.04761904761905,3,2,True,,,56.30039424560527,50.0,316.9050000142306,-6.300394245605268,False,1,2,67,6,0,0,18.0,0.9341539872436123,48.989465613196316,39.72248949784458,-3.9948124982630304,-10.056802956621832,0.0024321177528404394
ITLT,2,3,843,71.17437722419929,1,2,True,,,19.194949373496982,23.0,1546.7700000153854,3.805050626503018,False,1,2,68,6,0,0,18.0,0.9341539872436123,48.989465613196316,39.72248949784458,-1.5163996133595852,-3.8174838297631575,0.0009403777861527248
ITLT,2,6,425,141.1764705882353,4,2,True,,,68.5984388693479,85.0,6645.9000000031665,16.401561130652098,False,1,2,69,6,0,0,18.0,0.9341539872436123,48.989465613196316,39.72248949784458,21.23500853352416,53.45840304061611,0.04712360529761093
ITLT,2,7,774,77.51937984496124,2,0,True,,,25.354902613380577,24.0,1756.6500000539236,-1.3549026133805775,False,1,2,70,6,0,0,18.0,0.9341539872436123,48.989465613196316,39.72248949784458,-5.410173170929379,-13.61992473110968,0.005901141331049269
ITLT,2,6,329,182.370820668693,5,1,True,,,87.06720173383901,97.0,2046.5650000260212,9.932798266160987,False,1,2,71,6,0,0,18.0,0.9341539872436123,48.989465613196316,39.72248949784458,18.56250375506555,46.73046425268182,0.06900837485020767
ITLT,2,7,843,71.17437722419929,1,2,True,,,19.194949373496982,32.0,1391.5549999801442,12.805050626503018,False,1,2,72,6,0,0,18.0,0.9341539872436123,48.989465613196316,39.72248949784458,7.483600386640415,18.839706376022807,0.009072301098755108
ITLT,2,2,550,109.0909090909091,3,2,True,,,50.0,50.0,311.47000001510605,0.0,False,1,2,73,6,0,0,18.0,0.9341539872436123,48.989465613196316,39.72248949784458,1.010534386803684,2.543985534588706,3.6144560473582735e-06
ITLT,2,7,329,182.370820668693,5,1,True,,,87.06720173383901,89.0,2136.2450000015087,1.9327982661609866,False,1,2,74,6,0,0,18.0,0.9341539872436123,48.989465613196316,39.72248949784458,10.56250375506555,26.590739625316516,0.018695228399323378
ITLT,2,5,425,141.1764705882353,4,0,True,,,68.5984388693479,56.0,2480.4399999557063,-12.598438869347902,False,1,2,75,6,0,0,18.0,0.9341539872436123,48.989465613196316,39.72248949784458,-7.764991466475841,-19.548098733583114,0.010556302309597752
ITLT,2,3,550,109.0909090909091,3,2,True,,,50.0,50.0,375.54999999701977,0.0,False,1,2,76,6,0,0,18.0,0.9341539872436123,48.989465613196316,39.72248949784458,1.010534386803684,2.543985534588706,3.6144560473582735e-06
ITLT,2,5,918,65.359477124183,1,2,True,,,13.046873249910696,22.0,1301.1249999981374,8.953126750089304,False,1,2,77,6,0,0,18.0,0.9341539872436123,48.989465613196316,39.72248949784458,2.367938171662523,5.9612028389887595,0.0008052455200437138
ITLT,2,4,599,100.1669449081803,3,1,True,,,43.84378078116181,38.0,4495.969999989029,-5.843780781161811,False,1,2,78,6,0,0,18.0,0.9341539872436123,48.989465613196316,39.72248949784458,-6.0986585478617386,-15.353162968782872,0.004454421952133404
ITLT,2,5,302,198.67549668874173,5,2,True,,,93.24415345434716,97.0,1837.9800000111572,3.755846545652844,False,1,2,79,6,0,0,18.0,0.9341539872436123,48.989465613196316,39.72248949784458,13.655225758134009,34.37656081166556,0.04245763735949304
ITLT,2,7,390,153.84615384615384,4,1,True,,,74.79787473312055,93.0,1861.6599999950267,18.20212526687945,False,1,2,80,6,0,0,18.0,0.9341539872436123,48.989465613196316,39.72248949784458,24.309868013698747,61.19925594043608,0.07892694250546052
ITLT,2,5,504,119.04761904761905,3,1,True,,,56.30039424560527,50.0,349.31499999947846,-6.300394245605268,False,1,2,81,6,0,0,18.0,0.9341539872436123,48.989465613196316,39.72248949784458,-3.9948124982630304,-10.056802956621832,0.0024321177528404394
ITLT,2,4,302,198.67549668874173,5,2,True,,,93.24415345434716,86.0,1640.1499999919906,-7.244153454347156,False,1,2,82,6,0,0,18.0,0.9341539872436123,48.989465613196316,39.72248949784458,2.6552257581340086,6.684439449038275,0.00013876931447520435
ITLT,2,7,550,109.0909090909091,3,2,True,,,50.0,50.0,65.89999998686835,0.0,False,1,2,83,6,0,0,18.0,0.9341539872436123,48.989465613196316,39.72248949784458,1.010534386803684,2.543985534588706,3.6144560473582735e-06
ITLT,2,3,302,198.67549668874173,5,1,True,,,93.24415345434716,89.0,1470.0050000101328,-4.244153454347156,False,1,2,84,6,0,0,18.0,0.9341539872436123,48.989465613196316,39.72248949784458,5.655225758134009,14.236836184300264,0.0041943032080593206
ITLT,2,4,843,71.17437722419929,1,0,True,,,19.194949373496982,13.0,1156.6200000233948,-6.194949373496982,False,1,2,85,6,0,0,18.0,0.9341539872436123,48.989465613196316,39.72248949784458,-11.516399613359585,-28.992139613969787,0.029094211882133365
ITLT,2,6,774,77.51937984496124,2,1,True,,,25.354902613380577,34.0,2520.5300000379793,8.645097386619423,False,1,2,86,6,0,0,18.0,0.9341539872436123,48.989465613196316,39.72248949784458,4.589826829070621,11.554731053096946,0.0022264435693513957
ITLT,2,4,425,141.1764705882353,4,2,True,,,68.5984388693479,69.0,2310.529999958817,0.4015611306520981,False,1,2,87,6,0,0,18.0,0.9341539872436123,48.989465613196316,39.72248949784458,5.235008533524159,13.178953785885502,0.0016504172240764305
ITLT,2,3,652,92.02453987730061,2,2,True,,,37.727982709047225,27.0,1957.2749999933876,-10.727982709047225,False,1,2,88,6,0,0,18.0,0.9341539872436123,48.989465613196316,39.72248949784458,-12.23996405405154,-30.813688187180983,0.017362535526611843
ITLT,2,2,302,198.67549668874173,5,1,True,,,93.24415345434716,83.0,2509.805000037886,-10.244153454347156,False,1,2,89,6,0,0,18.0,0.9341539872436123,48.989465613196316,39.72248949784458,-0.34477424186599137,-0.8679572862237134,0.0016977171008202862
ITLT,2,4,710,84.50704225352112,2,2,True,,,31.580629700998873,27.0,1691.484999959357,-4.580629700998873,False,1,2,90,6,0,0,18.0,0.9341539872436123,48.989465613196316,39.72248949784458,-7.356200748016661,-18.518982171084275,0.008268017049190422
ITLT,3,2,358,167.5977653631285,5,1,True,"[74, 74, 74]","[43, 597, 1168]",80.97360155738828,71.0,5319.939999841154,-9.973601557388278,True,2,0,1,6,0,0,19.0,0.9574962769660929,52.354007835092645,47.93101676410121,-11.045932144928031,-23.04547846187373,0.027315435566773676
ITLT,3,5,652,92.02453987730061,2,1,True,"[74, 74, 74, 74, 74]","[64, 651, 1280, 1893, 2512]",37.727982709047225,37.0,2735.3900000452995,-0.7279827090472253,True,2,0,2,6,0,0,19.0,0.9574962769660929,52.354007835092645,47.93101676410121,-3.5898025050526954,-7.489518786384982,0.0012739386679313314
ITLT,3,4,918,65.359477124183,1,1,True,"[74, 74, 74, 74, 74]","[69, 667, 1280, 1925, 2544]",13.046873249910696,24.0,4724.260000046343,10.953126750089304,True,2,0,3,6,0,0,19.0,0.9574962769660929,52.354007835092645,47.93101676410121,7.070010919797099,14.750387947314128,0.01566276074088267
ITLT,3,2,710,84.50704225352112,2,2,True,"[74, 74, 74, 74]","[592, 1189, 1808, 2437]",31.580629700998873,30.0,7342.699999921024,-1.5806297009988732,True,2,0,4,6,0,0,19.0,0.9574962769660929,52.354007835092645,47.93101676410121,-4.696824903380431,-9.799134715828108,0.0027216760421092815
ITLT,3,5,1000,60.0,1,2,True,"[74, 74, 74, 74, 74]","[75, 656, 1312, 1963, 2523]",6.875176187496734,0.0,3972.529999911785,-6.875176187496734,True,2,0,5,6,0,0,19.0,0.9574962769660929,52.354007835092645,47.93101676410121,-11.013674772972543,-22.97817888399445,0.040120895422338425
ITLT,3,6,774,77.51937984496124,2,0,True,"[74, 74, 74, 74]","[592, 1131, 1765, 2373]",25.354902613380577,25.0,7432.52500006929,-0.3549026133805775,True,2,0,6,6,0,0,19.0,0.9574962769660929,52.354007835092645,47.93101676410121,-3.728716315273399,-7.779339073119951,0.0020637038357086963
ITLT,3,7,504,119.04761904761905,3,0,True,"[74, 74, 74, 74]","[64, 656, 1227, 1819]",56.30039424560527,56.0,3813.0349996499717,-0.3003942456052684,True,2,0,7,6,0,0,19.0,0.9574962769660929,52.354007835092645,47.93101676410121,-2.3936938792237044,-4.9940394358930105,0.0005010588557058395
ITLT,3,3,710,84.50704225352112,2,2,True,"[74, 74, 74, 74, 74]","[123, 709, 1333, 1920, 2656]",31.580629700998873,45.0,3363.79999993369,13.419370299001127,True,2,0,8,6,0,0,19.0,0.9574962769660929,52.354007835092645,47.93101676410121,10.303175096619569,21.495840881757207,0.015480330687274823
ITLT,3,4,425,141.1764705882353,4,1,True,"[74, 74, 74, 74]","[101, 667, 1205, 1787]",68.5984388693479,67.0,3623.2849997468293,-1.598438869347902,True,2,0,9,6,0,0,19.0,0.9574962769660929,52.354007835092645,47.93101676410121,-3.1828495397491565,-6.640479911815699,0.0013514746221988739
ITLT,3,6,358,167.5977653631285,5,1,True,"[74, 74, 74]","[75, 651, 1211]",80.97360155738828,89.0,3233.8200001977384,8.026398442611722,True,2,0,10,6,0,0,19.0,0.9574962769660929,52.354007835092645,47.93101676410121,6.954067855071969,14.508492255228647,0.010799599240316734
ITLT,3,3,463,129.58963282937364,4,0,True,"[74, 74, 74, 74]","[69, 645, 1200, 1803]",62.42097125758927,60.0,4268.135000020266,-2.4209712575892723,True,2,0,11,6,0,0,19.0,0.9574962769660929,52.354007835092645,47.93101676410121,-4.261003466571253,-8.889866633838254,0.0019600381557914083
ITLT,3,4,652,92.02453987730061,2,1,True,"[74, 74, 74, 74]","[75, 677, 1312, 1952]",37.727982709047225,48.0,5954.20499984175,10.272017290952775,True,2,0,12,6,0,0,19.0,0.9574962769660929,52.354007835092645,47.93101676410121,7.410197494947305,15.46012998517758,0.006597281226372788
ITLT,3,3,504,119.04761904761905,3,0,True,"[74, 74, 74, 74]","[133, 693, 1264, 1883]",56.30039424560527,53.0,4894.439999945462,-3.3003942456052684,True,2,0,13,6,0,0,19.0,0.9574962769660929,52.354007835092645,47.93101676410121,-5.393693879223704,-11.253034555410075,0.0027090660144471297
ITLT,3,6,463,129.58963282937364,4,0,True,"[74, 74, 74, 74]","[133, 731, 1280, 1787]",62.42097125758927,60.0,3357.8250003047287,-2.4209712575892723,True,2,0,14,6,0,0,19.0,0.9574962769660929,52.354007835092645,47.93101676410121,-4.261003466571253,-8.889866633838254,0.0019600381557914083
ITLT,3,2,504,119.04761904761905,3,0,True,"[74, 74, 74, 74]","[91, 683, 1227, 1808]",56.30039424560527,50.0,1405.6249996647239,-6.300394245605268,True,2,0,15,6,0,0,19.0,0.9574962769660929,52.354007835092645,47.93101676410121,-8.393693879223704,-17.51202967492714,0.006677019889474638
ITLT,3,7,918,65.359477124183,1,0,True,"[74, 74, 74, 74, 74, 74]","[64, 635, 1280, 1952, 2507, 3056]",13.046873249910696,7.0,3030.555000063032,-6.046873249910696,True,2,0,16,6,0,0,19.0,0.9574962769660929,52.354007835092645,47.93101676410121,-9.929989080202901,-20.717251063282564,0.025898128093254508
ITLT,3,6,599,100.1669449081803,3,1,True,"[74, 74, 74, 74, 74]","[80, 688, 1285, 1899, 2533]",43.84378078116181,50.0,4390.98499994725,6.156219218838189,True,2,0,17,6,0,0,19.0,0.9574962769660929,52.354007835092645,47.93101676410121,3.5474690965396576,7.401197253959774,0.0013716090708796305
ITLT,3,5,302,198.67549668874173,5,2,True,"[74, 74, 74]","[69, 640, 1205]",93.24415345434716,100.0,3849.3349999189377,6.755846545652844,True,2,0,18,6,0,0,19.0,0.9574962769660929,52.354007835092645,47.93101676410121,6.191267281513788,12.91703723287349,0.013327555885411664
ITLT,3,6,1000,60.0,1,0,True,"[74, 74, 74, 74, 74, 74]","[112, 677, 1323, 1931, 2480, 3040]",6.875176187496734,3.0,4908.245000056922,-3.8751761874967343,True,2,0,19,6,0,0,19.0,0.9574962769660929,52.354007835092645,47.93101676410121,-8.013674772972543,-16.719183764477386,0.020644423269058333
ITLT,3,7,710,84.50704225352112,2,0,True,"[74, 74, 74, 74, 74]","[101, 715, 1381, 1995, 2613]",31.580629700998873,43.0,3447.374999988824,11.419370299001127,True,2,0,20,6,0,0,19.0,0.9574962769660929,52.354007835092645,47.93101676410121,8.303175096619569,17.323177468745836,0.01017570283214238
ITLT,3,3,302,198.67549668874173,5,0,True,"[74, 74, 74]","[64, 661, 1184]",93.24415345434716,100.0,2384.4450004398823,6.755846545652844,True,2,0,21,6,0,0,19.0,0.9574962769660929,52.354007835092645,47.93101676410121,6.191267281513788,12.91703723287349,0.013327555885411664
ITLT,3,4,550,109.0909090909091,3,1,True,"[74, 74, 74, 74, 74]","[160, 752, 1317, 1813, 2368]",50.0,50.0,10280.259999912232,0.0,True,2,0,22,6,0,0,19.0,0.9574962769660929,52.354007835092645,47.93101676410121,-2.354007835092645,-4.911241183716598,0.00044393066580188665
ITLT,3,7,302,198.67549668874173,5,0,True,"[74, 74, 74]","[101, 699, 1291]",93.24415345434716,100.0,2133.994999807328,6.755846545652844,True,2,0,23,6,0,0,19.0,0.9574962769660929,52.354007835092645,47.93101676410121,6.191267281513788,12.91703723287349,0.013327555885411664
ITLT,3,5,463,129.58963282937364,4,2,True,"[74, 74, 74, 74]","[32, 608, 1189, 1723]",62.42097125758927,62.0,5242.839999962598,-0.42097125758927234,True,2,0,24,6,0,0,19.0,0.9574962769660929,52.354007835092645,47.93101676410121,-2.2610034665712533,-4.717203220826879,0.0005295116720549789
ITLT,3,3,843,71.17437722419929,1,2,True,"[74, 74, 74, 74, 74, 74]","[32, 587, 1163, 1755, 2320, 2864]",19.194949373496982,26.0,4986.595000140369,6.805050626503018,True,2,0,25,6,0,0,19.0,0.9574962769660929,52.354007835092645,47.93101676410121,3.176340124865405,6.626899113152929,0.002751491122643215
ITLT,3,5,504,119.04761904761905,3,1,True,"[74, 74, 74]","[549, 1141, 1717]",56.30039424560527,50.0,11841.179999988526,-6.300394245605268,True,2,0,26,6,0,0,19.0,0.9574962769660929,52.354007835092645,47.93101676410121,-8.393693879223704,-17.51202967492714,0.006677019889474638
ITLT,3,7,425,141.1764705882353,4,0,True,"[74, 74, 74, 74]","[59, 619, 1184, 1771]",68.5984388693479,79.0,3835.079999640584,10.401561130652098,True,2,0,27,6,0,0,19.0,0.9574962769660929,52.354007835092645,47.93101676410121,8.817150460250843,18.39550056625255,0.010944809237458126
ITLT,3,2,1000,60.0,1,1,True,"[74, 74, 74, 74, 74, 74, 74]","[112, 683, 1259, 1883, 2400, 2981, 3488]",6.875176187496734,3.0,3178.209999576211,-3.8751761874967343,True,2,0,28,6,0,0,19.0,0.9574962769660929,52.354007835092645,47.93101676410121,-8.013674772972543,-16.719183764477386,0.020644423269058333
ITLT,3,4,358,167.5977653631285,5,2,True,"[74, 74, 74]","[59, 629, 1104]",80.97360155738828,88.0,5700.140000320971,7.026398442611722,True,2,0,29,6,0,0,19.0,0.9574962769660929,52.354007835092645,47.93101676410121,5.954067855071969,12.42216054872296,0.007914921722839339
ITLT,3,2,425,141.1764705882353,4,1,True,"[74, 74, 74]","[560, 1120, 1707]",68.5984388693479,60.0,4214.764999691397,-8.598438869347902,True,2,0,30,6,0,0,19.0,0.9574962769660929,52.354007835092645,47.93101676410121,-10.182849539749157,-21.244801857355515,0.014216743638622764
ITLT,3,5,390,153.84615384615384,4,0,True,"[74, 74, 74]","[101, 672, 1227]",74.79787473312055,77.0,3756.099999882281,2.202125266879449,True,2,1,31,6,0,0,19.0,0.9574962769660929,52.354007835092645,47.93101676410121,0.8742451739616968,1.8239654256958688,0.00014312771403933002
ITLT,3,2,918,65.359477124183,1,0,True,"[74, 74, 74, 74, 74, 74]","[101, 635, 1205, 1813, 2299, 2853]",13.046873249910696,6.0,4100.085000041872,-7.046873249910696,True,2,1,32,6,0,0,19.0,0.9574962769660929,52.354007835092645,47.93101676410121,-10.929989080202901,-22.80358276978825,0.03159761620974532
ITLT,3,5,329,182.370820668693,5,1,True,"[74, 74, 74]","[53, 624, 1141]",87.06720173383901,97.0,3049.4949999265373,9.932798266160987,True,2,1,33,6,0,0,19.0,0.9574962769660929,52.354007835092645,47.93101676410121,9.112618810848176,19.011945554372705,0.02329663548373107
ITLT,3,3,774,77.51937984496124,2,1,True,"[74, 74, 74, 74, 74, 74]","[91, 645, 1221, 1771, 2331, 2891]",25.354902613380577,30.0,2340.224999934435,4.6450973866194225,True,2,1,34,6,0,0,19.0,0.9574962769660929,52.354007835092645,47.93101676410121,1.2712836847266011,2.6523194594084885,0.00043300873488734686
ITLT,3,7,599,100.1669449081803,3,1,True,"[74, 74, 74, 74, 74]","[69, 635, 1248, 1856, 2432]",43.84378078116181,46.0,2209.369999822229,2.1562192188381886,True,2,1,35,6,0,0,19.0,0.9574962769660929,52.354007835092645,47.93101676410121,-0.4525309034603424,-0.9441295720629769,6.324122233137273e-06
ITLT,3,3,390,153.84615384615384,4,1,True,"[74, 74, 74, 74]","[11, 587, 1099, 1664]",74.79787473312055,64.0,2500.725000165403,-10.797874733120551,True,2,1,36,6,0,0,19.0,0.9574962769660929,52.354007835092645,47.93101676410121,-12.125754826038303,-25.298346758878072,0.02569784183857315
ITLT,3,7,774,77.51937984496124,2,2,True,"[74, 74, 74, 74, 74]","[171, 757, 1360, 1979, 2480]",25.354902613380577,21.0,3433.445000089705,-4.3549026133805775,True,2,1,37,6,0,0,19.0,0.9574962769660929,52.354007835092645,47.93101676410121,-7.728716315273399,-16.124665899142702,0.009686004789801033
ITLT,3,3,329,182.370820668693,5,2,True,"[74, 74, 74]","[85, 640, 1157]",87.06720173383901,84.0,2855.8000000193715,-3.0672017338390134,True,2,1,38,6,0,0,19.0,0.9574962769660929,52.354007835092645,47.93101676410121,-3.8873811891518244,-8.110366630201234,0.004361251897369209
ITLT,3,7,1000,60.0,1,1,True,"[74, 74, 74, 74, 74, 74, 74]","[85, 651, 1179, 1717, 2288, 2853, 3339]",6.875176187496734,11.0,2517.390000168234,4.124823812503266,True,2,1,39,6,0,0,19.0,0.9574962769660929,52.354007835092645,47.93101676410121,-0.013674772972542826,-0.02853011243188313,5.3376062371376054e-05
ITLT,3,2,774,77.51937984496124,2,0,True,"[74, 74, 74, 74, 74, 74]","[21, 603, 1131, 1701, 2240, 2837]",25.354902613380577,21.0,3328.940000385046,-4.3549026133805775,True,2,1,40,6,0,0,19.0,0.9574962769660929,52.354007835092645,47.93101676410121,-7.728716315273399,-16.124665899142702,0.009686004789801033
ITLT,3,5,843,71.17437722419929,1,1,True,"[74, 74, 74, 74, 74, 74]","[603, 1115, 1696, 2219, 2747, 3323]",19.194949373496982,13.0,11336.604999843985,-6.194949373496982,True,2,1,41,6,0,0,19.0,0.9574962769660929,52.354007835092645,47.93101676410121,-9.823659875134595,-20.495413071421012,0.020119663962329372
ITLT,3,4,599,100.1669449081803,3,0,True,"[74, 74, 74, 74, 74]","[27, 608, 1083, 1680, 2299]",43.84378078116181,58.0,4038.044999819249,14.156219218838189,True,2,1,42,6,0,0,19.0,0.9574962769660929,52.354007835092645,47.93101676410121,11.547469096539658,24.091850906005273,0.01348740425956376
ITLT,3,2,390,153.84615384615384,4,0,True,"[74, 74, 74, 74]","[27, 603, 1088, 1675]",74.79787473312055,63.0,2677.085000090301,-11.797874733120551,True,2,1,43,6,0,0,19.0,0.9574962769660929,52.354007835092645,47.93101676410121,-13.125754826038303,-27.38467846538376,0.03012200815771249
ITLT,3,6,710,84.50704225352112,2,1,True,"[74, 74, 74, 74, 74, 74]","[48, 619, 1200, 1861, 2336, 2757]",31.580629700998873,40.0,5028.2100001350045,8.419370299001127,True,2,1,44,6,0,0,19.0,0.9574962769660929,52.354007835092645,47.93101676410121,5.303175096619569,11.06418234922877,0.0042976883008535366
ITLT,3,4,843,71.17437722419929,1,2,True,"[74, 74, 74, 74, 74]","[565, 1093, 1643, 2197, 2752]",19.194949373496982,36.0,2833.4850003011525,16.805050626503018,True,2,1,45,6,0,0,19.0,0.9574962769660929,52.354007835092645,47.93101676410121,13.176340124865405,27.49021617820981,0.04076967162764904
ITLT,3,2,599,100.1669449081803,3,1,True,"[74, 74, 74, 74, 74]","[27, 539, 1040, 1680, 2240]",43.84378078116181,49.0,3273.645000066608,5.156219218838189,True,2,1,46,6,0,0,19.0,0.9574962769660929,52.354007835092645,47.93101676410121,2.5474690965396576,5.314865547454086,0.0007369995433620337
ITLT,3,4,774,77.51937984496124,2,2,True,"[74, 74, 74, 74, 74, 74, 74]","[27, 613, 1141, 1659, 2219, 2795, 3275]",25.354902613380577,31.0,2803.5300001502037,5.6450973866194225,True,2,1,47,6,0,0,19.0,0.9574962769660929,52.354007835092645,47.93101676410121,2.271283684726601,4.738651165914176,0.0011598271936289531
ITLT,3,7,329,182.370820668693,5,1,True,"[74, 74, 74]","[48, 613, 1088]",87.06720173383901,96.0,2650.599999818951,8.932798266160987,True,2,1,48,6,0,0,19.0,0.9574962769660929,52.354007835092645,47.93101676410121,8.112618810848176,16.925613847867016,0.01844474206845356
ITLT,3,5,550,109.0909090909091,3,2,True,"[74, 74, 74, 74, 74]","[69, 661, 1211, 1803, 2331]",50.0,50.0,830.3950000554323,0.0,True,2,1,49,6,0,0,19.0,0.9574962769660929,52.354007835092645,47.93101676410121,-2.354007835092645,-4.911241183716598,0.00044393066580188665
ITLT,3,4,302,198.67549668874173,5,0,True,"[74, 74, 74]","[80, 683, 1269]",93.24415345434716,89.0,3619.3749997764826,-4.244153454347156,True,2,1,50,6,0,0,19.0,0.9574962769660929,52.354007835092645,47.93101676410121,-4.808732718486212,-10.032611538689073,0.008481767182429484
ITLT,3,6,390,153.84615384615384,4,2,True,"[74, 74, 74, 74]","[43, 603, 1147, 1637]",74.79787473312055,82.0,4314.979999791831,7.202125266879449,True,2,1,51,6,0,0,19.0,0.9574962769660929,52.354007835092645,47.93101676410121,5.874245173961697,12.255623958224307,0.006118514161663565
ITLT,3,3,550,109.0909090909091,3,1,True,"[74, 74, 74, 74, 74]","[75, 645, 1221, 1808, 2373]",50.0,50.0,765.7349999062717,0.0,True,2,1,52,6,0,0,19.0,0.9574962769660929,52.354007835092645,47.93101676410121,-2.354007835092645,-4.911241183716598,0.00044393066580188665
ITLT,3,4,463,129.58963282937364,4,0,True,"[74, 74, 74, 74]","[32, 640, 1195, 1691]",62.42097125758927,55.0,2374.9549998901784,-7.420971257589272,True,2,1,53,6,0,0,19.0,0.9574962769660929,52.354007835092645,47.93101676410121,-9.261003466571253,-19.321525166366694,0.009491691425746728
ITLT,3,6,918,65.359477124183,1,2,True,"[74, 74, 74, 74, 74, 74, 74, 74]","[27, 571, 1152, 1744, 2256, 2768, 3312, 3851]",13.046873249910696,0.0,2810.9699999913573,-13.046873249910696,True,2,1,54,6,0,0,19.0,0.9574962769660929,52.354007835092645,47.93101676410121,-16.9299890802029,-35.32157300882238,0.07768849617135302
ITLT,3,2,302,198.67549668874173,5,2,True,"[74, 74, 74]","[11, 608, 1131]",93.24415345434716,97.0,2764.6200000308454,3.755846545652844,True,2,1,55,6,0,0,19.0,0.9574962769660929,52.354007835092645,47.93101676410121,3.191267281513788,6.658042113356428,0.003462474490156165
ITLT,3,6,550,109.0909090909091,3,2,True,"[74, 74, 74, 74]","[5, 603, 1189, 1787]",50.0,50.0,847.3000000230968,0.0,True,2,1,56,6,0,0,19.0,0.9574962769660929,52.354007835092645,47.93101676410121,-2.354007835092645,-4.911241183716598,0.00044393066580188665
ITLT,3,3,918,65.359477124183,1,1,True,"[74, 74, 74, 74, 74, 74, 74]","[293, 816, 1360, 1899, 2464, 3008, 3563]",13.046873249910696,25.0,3377.145000267774,11.953126750089304,True,2,1,57,6,0,0,19.0,0.9574962769660929,52.354007835092645,47.93101676410121,8.070010919797099,16.836719653819817,0.020158087992388565
ITLT,3,6,302,198.67549668874173,5,2,True,"[74, 74, 74]","[11, 603, 1115]",93.24415345434716,100.0,2172.289999667555,6.755846545652844,True,2,1,58,6,0,0,19.0,0.9574962769660929,52.354007835092645,47.93101676410121,6.191267281513788,12.91703723287349,0.013327555885411664
ITLT,3,7,390,153.84615384615384,4,2,True,"[74, 74, 74, 74]","[91, 672, 1211, 1680]",74.79787473312055,77.0,3536.3949998281896,2.202125266879449,True,2,1,59,6,0,0,19.0,0.9574962769660929,52.354007835092645,47.93101676410121,0.8742451739616968,1.8239654256958688,0.00014312771403933002
ITLT,3,5,774,77.51937984496124,2,2,True,"[74, 74, 74, 74, 74]","[549, 1125, 1691, 2245, 2795]",25.354902613380577,39.0,2197.300000116229,13.645097386619423,True,2,1,60,6,0,0,19.0,0.9574962769660929,52.354007835092645,47.93101676410121,10.271283684726601,21.429304817959675,0.019609864610432317
ITLT,3,2,550,109.0909090909091,3,2,True,"[74, 74, 74, 74]","[101, 677, 1248, 1835]",50.0,50.0,1275.1899999566376,0.0,True,2,2,61,6,0,0,19.0,0.9574962769660929,52.354007835092645,47.93101676410121,-2.354007835092645,-4.911241183716598,0.00044393066580188665
ITLT,3,5,918,65.359477124183,1,0,True,"[74, 74, 74, 74, 74, 74, 74]","[101, 720, 1323, 1883, 2464, 3024, 3584]",13.046873249910696,13.0,2849.644999951124,-0.0468732499106963,True,2,2,62,6,0,0,19.0,0.9574962769660929,52.354007835092645,47.93101676410121,-3.929989080202901,-8.199260824248437,0.003595150656972438
ITLT,3,7,550,109.0909090909091,3,2,True,"[74, 74, 74, 74]","[101, 709, 1285, 1840]",50.0,50.0,661.809999961406,0.0,True,2,2,63,6,0,0,19.0,0.9574962769660929,52.354007835092645,47.93101676410121,-2.354007835092645,-4.911241183716598,0.00044393066580188665
ITLT,3,2,652,92.02453987730061,2,1,True,"[74, 74, 74, 74, 74]","[21, 613, 1189, 1819, 2528]",37.727982709047225,49.0,3235.679999925196,11.272017290952775,True,2,2,64,6,0,0,19.0,0.9574962769660929,52.354007835092645,47.93101676410121,8.410197494947305,17.54646169168327,0.008436857883983668
ITLT,3,4,1000,60.0,1,0,True,"[74, 74, 74, 74, 74, 74, 74, 74]","[91, 651, 1285, 1888, 2501, 3056, 3653, 4181]",6.875176187496734,28.0,3257.6999999582767,21.124823812503266,True,2,2,65,6,0,0,19.0,0.9574962769660929,52.354007835092645,47.93101676410121,16.986325227027457,35.439108898164804,0.10768535579598919
ITLT,3,6,504,119.04761904761905,3,0,True,"[74, 74, 74, 74]","[80, 683, 1221, 1808]",56.30039424560527,60.0,3125.2150000073016,3.6996057543947316,True,2,2,66,6,0,0,19.0,0.9574962769660929,52.354007835092645,47.93101676410121,1.6063061207762956,3.35128739012974,0.0002947442027182394
ITLT,3,4,710,84.50704225352112,2,0,True,"[74, 74, 74, 74, 74]","[123, 715, 1285, 1899, 2613]",31.580629700998873,46.0,2878.78999998793,14.419370299001127,True,2,2,67,6,0,0,19.0,0.9574962769660929,52.354007835092645,47.93101676410121,11.303175096619569,23.582172588262896,0.018548430065123012
ITLT,3,2,329,182.370820668693,5,0,True,"[74, 74, 74]","[91, 672, 1227]",87.06720173383901,100.0,2911.5900001488626,12.932798266160987,True,2,2,68,6,0,0,19.0,0.9574962769660929,52.354007835092645,47.93101676410121,12.112618810848176,25.27094067388977,0.041247641176659466
ITLT,3,6,652,92.02453987730061,2,2,True,"[74, 74, 74, 74, 74]","[75, 661, 1285, 1840, 2464]",37.727982709047225,43.0,2872.250000014901,5.272017290952775,True,2,2,69,6,0,0,19.0,0.9574962769660929,52.354007835092645,47.93101676410121,2.4101974949473046,5.028471452649144,0.0007884890008816096
ITLT,3,4,329,182.370820668693,5,1,True,"[74, 74, 74]","[75, 656, 1184]",87.06720173383901,78.0,4274.439999833703,-9.067201733839013,True,2,2,70,6,0,0,19.0,0.9574962769660929,52.354007835092645,47.93101676410121,-9.887381189151824,-20.62835686923536,0.027877435835689558
ITLT,3,6,425,141.1764705882353,4,1,True,"[74, 74, 74, 74]","[85, 672, 1216, 1829]",68.5984388693479,72.0,3220.7899997010827,3.401561130652098,True,2,2,71,6,0,0,19.0,0.9574962769660929,52.354007835092645,47.93101676410121,1.8171504602508435,3.791178620712738,0.000490439253471338
ITLT,3,3,599,100.1669449081803,3,2,True,"[74, 74, 74, 74, 74]","[59, 645, 1211, 1808, 2411]",43.84378078116181,48.0,2823.5749998129904,4.156219218838189,True,2,2,72,6,0,0,19.0,0.9574962769660929,52.354007835092645,47.93101676410121,1.5474690965396576,3.2285338409483986,0.00029791554274841934
ITLT,3,7,463,129.58963282937364,4,1,True,"[74, 74, 74, 74]","[85, 699, 1237, 1808]",62.42097125758927,55.0,2859.014999587089,-7.420971257589272,True,2,2,73,6,0,0,19.0,0.9574962769660929,52.354007835092645,47.93101676410121,-9.261003466571253,-19.321525166366694,0.009491691425746728
ITLT,3,5,710,84.50704225352112,2,0,True,"[74, 74, 74, 74, 74]","[123, 736, 1339, 1899, 2587]",31.580629700998873,40.0,3440.3050001710653,8.419370299001127,True,2,2,74,6,0,0,19.0,0.9574962769660929,52.354007835092645,47.93101676410121,5.303175096619569,11.06418234922877,0.0042976883008535366
ITLT,3,3,1000,60.0,1,0,True,"[74, 74, 74, 74, 74, 74]","[123, 715, 1312, 1941, 2555, 3179]",6.875176187496734,20.0,2978.904999792576,13.124823812503266,True,2,2,75,6,0,0,19.0,0.9574962769660929,52.354007835092645,47.93101676410121,8.986325227027457,18.748455246119306,0.03138811177206647
ITLT,3,7,652,92.02453987730061,2,1,True,"[74, 74, 74, 74, 74]","[96, 704, 1312, 1899, 2571]",37.727982709047225,48.0,3973.34499983117,10.272017290952775,True,2,2,76,6,0,0,19.0,0.9574962769660929,52.354007835092645,47.93101676410121,7.410197494947305,15.46012998517758,0.006597281226372788
ITLT,3,6,329,182.370820668693,5,0,True,"[74, 74, 74]","[32, 624, 1157]",87.06720173383901,100.0,2264.115000143647,12.932798266160987,True,2,2,77,6,0,0,19.0,0.9574962769660929,52.354007835092645,47.93101676410121,12.112618810848176,25.27094067388977,0.041247641176659466
ITLT,3,5,425,141.1764705882353,4,1,True,"[74, 74, 74, 74]","[59, 656, 1189, 1813]",68.5984388693479,62.0,3569.5099998265505,-6.598438869347902,True,2,2,78,6,0,0,19.0,0.9574962769660929,52.354007835092645,47.93101676410121,-8.182849539749157,-17.07213844434414,0.009152878741048635
ITLT,3,3,358,167.5977653631285,5,1,True,"[74, 74, 74]","[91, 688, 1264]",80.97360155738828,71.0,3553.9799998514354,-9.973601557388278,True,2,2,79,6,0,0,19.0,0.9574962769660929,52.354007835092645,47.93101676410121,-11.045932144928031,-23.04547846187373,0.027315435566773637
ITLT,3,4,390,153.84615384615384,4,2,True,"[74, 74, 74]","[85, 683, 1280]",74.79787473312055,77.0,3359.1350000351667,2.202125266879449,True,2,2,80,6,0,0,19.0,0.9574962769660929,52.354007835092645,47.93101676410121,0.8742451739616968,1.8239654256958688,0.00014312771403933002
ITLT,3,3,652,92.02453987730061,2,0,True,"[74, 74, 74, 74, 74]","[85, 699, 1328, 1941, 2533]",37.727982709047225,49.0,3677.790000103414,11.272017290952775,True,2,2,81,6,0,0,19.0,0.9574962769660929,52.354007835092645,47.93101676410121,8.410197494947305,17.54646169168327,0.008436857883983668
ITLT,3,2,463,129.58963282937364,4,2,True,"[74, 74, 74, 74]","[85, 672, 1232, 1835]",62.42097125758927,54.0,3103.215000126511,-8.420971257589272,True,2,2,82,6,0,0,19.0,0.9574962769660929,52.354007835092645,47.93101676410121,-10.261003466571253,-21.40785687287238,0.011676079861557376
ITLT,3,5,599,100.1669449081803,3,0,True,"[74, 74, 74, 74, 74]","[144, 699, 1269, 1899, 2501]",43.84378078116181,50.0,559.0200000442564,6.156219218838189,True,2,2,83,6,0,0,19.0,0.9574962769660929,52.354007835092645,47.93101676410121,3.5474690965396576,7.401197253959774,0.0013716090708796305
ITLT,3,3,425,141.1764705882353,4,2,True,"[74, 74, 74, 74]","[69, 672, 1344, 1824]",68.5984388693479,58.0,2586.780000012368,-10.598438869347902,True,2,2,84,6,0,0,19.0,0.9574962769660929,52.354007835092645,47.93101676410121,-12.182849539749157,-25.41746527036689,0.020391067536216452
ITLT,3,2,843,71.17437722419929,1,2,True,"[74, 74, 74, 74, 74, 74, 74]","[43, 624, 1195, 1771, 2363, 2971, 3525]",19.194949373496982,25.0,2770.9800000302494,5.805050626503018,True,2,2,85,6,0,0,19.0,0.9574962769660929,52.354007835092645,47.93101676410121,2.176340124865405,4.5405674066472415,0.0014068967592935722
ITLT,3,5,358,167.5977653631285,5,0,True,"[74, 74, 74, 74]","[27, 629, 1195, 1621]",80.97360155738828,87.0,2492.240000050515,6.026398442611722,True,2,2,86,6,0,0,19.0,0.9574962769660929,52.354007835092645,47.93101676410121,4.954067855071969,10.335828842217273,0.005477564673604102
ITLT,3,6,843,71.17437722419929,1,1,True,"[74, 74, 74, 74, 74, 74, 74]","[43, 613, 1205, 1771, 2352, 2997, 3445]",19.194949373496982,8.0,3763.784999959171,-11.194949373496982,True,2,2,87,6,0,0,19.0,0.9574962769660929,52.354007835092645,47.93101676410121,-14.823659875134595,-30.92707160394945,0.04690428787945761
ITLT,3,7,358,167.5977653631285,5,2,True,"[74, 74, 74]","[64, 629, 1173]",80.97360155738828,86.0,2667.969999834895,5.026398442611722,True,2,2,88,6,0,0,19.0,0.9574962769660929,52.354007835092645,47.93101676410121,3.954067855071969,8.249497135711586,0.003487528092611023
ITLT,3,4,504,119.04761904761905,3,2,True,"[74, 74, 74, 74]","[80, 619, 1168, 1749]",56.30039424560527,50.0,734.7749997861683,-6.300394245605268,True,2,2,89,6,0,0,19.0,0.9574962769660929,52.354007835092645,47.93101676410121,-8.393693879223704,-17.51202967492714,0.006677019889474638
ITLT,3,7,843,71.17437722419929,1,2,True,"[74, 74, 74, 74, 74, 74, 74]","[5, 619, 1173, 1760, 2267, 2741, 3232]",19.194949373496982,33.0,3286.9400000199676,13.805050626503018,True,2,2,90,6,0,0,19.0,0.9574962769660929,52.354007835092645,47.93101676410121,10.176340124865405,21.231221058692743,0.02467315407340459
ITLT,7,2,463,129.58963282937364,4,1,True,"[74, 74, 74, 74, 74]","[331, 760, 1109, 1549, 1989]",62.42097125758927,50.0,876,-12.420971257589272,True,2,0,1,4,2,0,26.0,0.9335188196790785,47.19491477182055,54.6705253795598,-10.776135259356892,-19.711051219174617,0.007649029237910309
ITLT,7,3,329,182.370820668693,5,1,True,"[74, 74, 74, 74, 74]","[339, 619, 851, 1139, 1440]",87.06720173383901,81.0,3182,-6.067201733839013,True,2,0,2,4,2,0,26.0,0.9335188196790785,47.19491477182055,54.6705253795598,-6.724582634602726,-12.300197570658266,0.005329152791826748
ITLT,7,2,504,119.04761904761905,3,1,True,"[74, 74, 74, 74, 74]","[320, 709, 1179, 1669, 2179]",56.30039424560527,50.0,1374,-6.300394245605268,True,2,0,3,4,2,0,26.0,0.9335188196790785,47.19491477182055,54.6705253795598,-4.083832041932453,-7.469897195206607,0.0012661535432235795
ITLT,7,6,329,182.370820668693,5,1,True,"[74, 74, 74, 74, 74]","[331, 741, 952, 1171, 1512]",87.06720173383901,100.0,2863,12.932798266160987,True,2,0,4,4,2,0,26.0,0.9335188196790785,47.19491477182055,54.6705253795598,12.275417365397274,22.453446862222407,0.025352455727176204
ITLT,7,2,710,84.50704225352112,2,0,True,"[74, 74, 74, 74, 74]","[19, 709, 1659, 2309, 2960]",31.580629700998873,15.0,1893,-16.580629700998873,True,2,0,5,4,2,0,26.0,0.9335188196790785,47.19491477182055,54.6705253795598,-12.05498174367953,-22.050239429721383,0.014808283608541908
ITLT,7,5,302,198.67549668874173,5,1,True,"[74, 74, 74, 74]","[560, 840, 1091, 1379]",93.24415345434716,97.0,2428,3.755846545652844,True,2,0,6,4,2,0,26.0,0.9335188196790785,47.19491477182055,54.6705253795598,2.5214734493101645,4.612125879172349,0.0024340115796389734
ITLT,7,3,710,84.50704225352112,2,2,True,"[74, 74, 74, 74, 74]","[491, 821, 1680, 2312, 3021]",31.580629700998873,3.0,2318,-28.580629700998873,True,2,0,7,4,2,0,26.0,0.9335188196790785,47.19491477182055,54.6705253795598,-24.05498174367953,-43.99990959785654,0.050328404420647795
ITLT,7,4,843,71.17437722419929,1,0,True,"[74, 74, 74, 74]","[309, 651, 1709, 2629]",19.194949373496982,0.0,1935,-19.194949373496982,True,2,0,8,4,2,0,26.0,0.9335188196790785,47.19491477182055,54.6705253795598,-13.512348729923396,-24.71596648488655,0.03147190174045071
ITLT,7,7,550,109.0909090909091,3,0,True,"[74, 74, 74, 74, 74]","[240, 669, 1211, 1731, 2240]",50.0,50.0,1828,0.0,True,2,0,9,4,2,0,26.0,0.9335188196790785,47.19491477182055,54.6705253795598,2.8050852281794505,5.130891296003925,0.000125875981112185
ITLT,7,4,710,84.50704225352112,2,2,True,"[74, 74, 74, 74]","[472, 1512, 2211, 2920]",31.580629700998873,18.0,1930,-13.580629700998873,True,2,0,10,4,2,0,26.0,0.9335188196790785,47.19491477182055,54.6705253795598,-9.05498174367953,-16.562821887687594,0.009221113948381203
ITLT,7,3,1000,60.0,1,2,True,"[74, 74, 74, 74, 74, 74, 74]","[349, 800, 1339, 1800, 2240, 2739, 3160]",6.875176187496734,0.0,2356,-6.875176187496734,True,2,0,11,4,2,0,26.0,0.9335188196790785,47.19491477182055,54.6705253795598,-0.04177927721045904,-0.07642011288605517,0.00232190102989112
ITLT,7,4,504,119.04761904761905,3,2,True,[74],[640],56.30039424560527,50.0,708,-6.300394245605268,True,2,0,12,4,2,0,26.0,0.9335188196790785,47.19491477182055,54.6705253795598,-4.083832041932453,-7.469897195206607,0.0012661535432235795
ITLT,7,7,843,71.17437722419929,1,1,True,"[74, 74, 74, 74]","[331, 691, 1789, 2491]",19.194949373496982,3.0,1584,-16.194949373496982,True,2,0,13,4,2,0,26.0,0.9335188196790785,47.19491477182055,54.6705253795598,-10.512348729923396,-19.22854894285276,0.020973708520475875
ITLT,7,4,302,198.67549668874173,5,2,True,"[74, 74]","[611, 840]",93.24415345434716,99.0,1504,5.755846545652844,True,2,0,14,4,2,0,26.0,0.9335188196790785,47.19491477182055,54.6705253795598,4.5214734493101645,8.27040424052821,0.005891256681000597
ITLT,7,7,390,153.84615384615384,4,1,True,,,74.79787473312055,63.0,1163,-11.797874733120551,False,1,0,15,4,2,0,26.0,0.9335188196790785,47.19491477182055,54.6705253795598,-11.309171570944784,-20.686048821424084,0.011637292993688889
ITLT,7,5,550,109.0909090909091,3,2,True,"[74, 74, 74, 74]","[400, 1032, 1581, 2080]",50.0,30.0,3330,-20.0,True,2,0,16,4,2,0,26.0,0.9335188196790785,47.19491477182055,54.6705253795598,-17.19491477182055,-31.45189231755468,0.016543861735288636
ITLT,7,2,358,167.5977653631285,5,0,True,"[74, 74, 74]","[141, 651, 1011]",80.97360155738828,77.0,2812,-3.973601557388278,True,2,0,17,4,2,0,26.0,0.9335188196790785,47.19491477182055,54.6705253795598,-4.061776172611928,-7.429553940468522,0.0015567683001867637
ITLT,7,5,463,129.58963282937364,4,1,True,"[74, 74, 74, 74, 74]","[360, 699, 1080, 1499, 1960]",62.42097125758927,50.0,1002,-12.420971257589272,True,2,0,18,4,2,0,26.0,0.9335188196790785,47.19491477182055,54.6705253795598,-10.776135259356892,-19.711051219174617,0.0076490292379103
ITLT,7,6,843,71.17437722419929,1,0,True,[74],[149],19.194949373496982,11.0,1283,-8.194949373496982,True,2,0,19,4,2,0,26.0,0.9335188196790785,47.19491477182055,54.6705253795598,-2.5123487299233958,-4.595435497429319,0.0033573344450564657
ITLT,7,5,774,77.51937984496124,2,0,True,"[74, 74, 74]","[491, 789, 1611]",25.354902613380577,26.0,1887,0.6450973866194225,True,2,0,20,4,2,0,26.0,0.9335188196790785,47.19491477182055,54.6705253795598,5.7522936713174495,10.521745732972443,0.0009809164225352454
ITLT,7,7,302,198.67549668874173,5,1,True,,,93.24415345434716,100.0,2041,6.755846545652844,False,1,0,21,4,2,0,26.0,0.9335188196790785,47.19491477182055,54.6705253795598,5.5214734493101645,10.099543421206139,0.008183722971715629
ITLT,7,3,599,100.1669449081803,3,0,True,"[74, 74, 74, 74]","[611, 1171, 1789, 2309]",43.84378078116181,23.0,2931,-20.84378078116181,True,2,0,22,4,2,0,26.0,0.9335188196790785,47.19491477182055,54.6705253795598,-17.463639990908014,-31.94342814462382,0.018610699690029698
ITLT,7,5,1000,60.0,1,1,True,"[74, 74, 74, 74, 74]","[389, 731, 1981, 2971, 3869]",6.875176187496734,26.0,3397,19.124823812503266,True,2,0,23,4,2,0,26.0,0.9335188196790785,47.19491477182055,54.6705253795598,25.95822072278954,47.48119858474013,0.09509360580193188
ITLT,7,7,652,92.02453987730061,2,1,True,"[74, 74, 74, 74, 74]","[371, 741, 1440, 2080, 2741]",37.727982709047225,27.0,4958,-10.727982709047225,True,2,0,24,4,2,0,26.0,0.9335188196790785,47.19491477182055,54.6705253795598,-6.776562116551936,-12.39527527768291,0.004435430522970377
ITLT,7,4,390,153.84615384615384,4,1,True,"[74, 74, 74, 74]","[709, 1019, 1349, 1739]",74.79787473312055,100.0,3077,25.20212526687945,True,2,0,25,4,2,0,26.0,0.9335188196790785,47.19491477182055,54.6705253795598,25.690828429055216,46.99210086365934,0.061696505966464414
ITLT,7,6,599,100.1669449081803,3,2,True,"[74, 74, 74]","[400, 1989, 2491]",43.84378078116181,30.0,3287,-13.843780781161811,True,2,0,26,4,2,0,26.0,0.9335188196790785,47.19491477182055,54.6705253795598,-10.463639990908014,-19.13945387987831,0.007418365565895922
ITLT,7,3,425,141.1764705882353,4,1,True,"[74, 74, 74, 74, 74]","[91, 699, 1139, 1339, 1779]",68.5984388693479,63.0,1986,-5.598438869347902,True,2,0,27,4,2,0,26.0,0.9335188196790785,47.19491477182055,54.6705253795598,-4.530643256358061,-8.287177093878775,0.001654611375787541
ITLT,7,6,710,84.50704225352112,2,0,True,"[74, 74, 74, 74, 74]","[349, 699, 1499, 2160, 2869]",31.580629700998873,36.0,4064,4.419370299001127,True,2,0,28,4,2,0,26.0,0.9335188196790785,47.19491477182055,54.6705253795598,8.94501825632047,16.36168336451515,0.0033581245474893413
ITLT,7,2,1000,60.0,1,0,True,[74],[1760],6.875176187496734,16.0,2248,9.124823812503266,True,2,0,29,4,2,0,26.0,0.9335188196790785,47.19491477182055,54.6705253795598,15.958220722789541,29.18980677796083,0.029321281652749494
ITLT,7,6,425,141.1764705882353,4,2,True,"[74, 74, 74, 74]","[821, 1051, 1371, 1840]",68.5984388693479,71.0,4509,2.401561130652098,True,2,0,30,4,2,0,26.0,0.9335188196790785,47.19491477182055,54.6705253795598,3.4693567436419386,6.345936351544667,0.0007733527051822219
ITLT,7,3,390,153.84615384615384,4,0,True,"[74, 74, 74, 74, 74]","[541, 731, 1021, 1280, 1621]",74.79787473312055,79.0,2363,4.202125266879449,True,2,1,31,4,2,0,26.0,0.9335188196790785,47.19491477182055,54.6705253795598,4.690828429055216,8.5801780694228,0.0021329494257941737
ITLT,7,2,599,100.1669449081803,3,2,True,"[74, 74, 74, 74, 74]","[160, 680, 1288, 1859, 2440]",43.84378078116181,50.0,799,6.156219218838189,True,2,1,32,4,2,0,26.0,0.9335188196790785,47.19491477182055,54.6705253795598,9.536360009091986,17.443329733680294,0.003313030956330753
ITLT,7,5,710,84.50704225352112,2,1,True,"[74, 74, 74]","[1720, 2221, 2869]",31.580629700998873,40.0,2267,8.419370299001127,True,2,1,33,4,2,0,26.0,0.9335188196790785,47.19491477182055,54.6705253795598,12.94501825632047,23.67824008722687,0.008494609742228638
ITLT,7,6,550,109.0909090909091,3,0,True,"[74, 74, 74, 74]","[920, 1280, 1771, 2320]",50.0,50.0,2974,0.0,True,2,1,34,4,2,0,26.0,0.9335188196790785,47.19491477182055,54.6705253795598,2.8050852281794505,5.130891296003925,0.000125875981112185
ITLT,7,5,329,182.370820668693,5,0,True,"[74, 74, 74, 74, 74]","[320, 648, 920, 1139, 1408]",87.06720173383901,100.0,1687,12.932798266160987,True,2,1,35,4,2,0,26.0,0.9335188196790785,47.19491477182055,54.6705253795598,12.275417365397274,22.453446862222407,0.025352455727176204
ITLT,7,7,504,119.04761904761905,3,2,True,"[74, 74, 74, 74]","[709, 1099, 1600, 2149]",56.30039424560527,50.0,1349,-6.300394245605268,True,2,1,36,4,2,0,26.0,0.9335188196790785,47.19491477182055,54.6705253795598,-4.083832041932453,-7.469897195206607,0.0012661535432235795
ITLT,7,5,425,141.1764705882353,4,2,True,"[74, 74, 74, 74, 74]","[491, 771, 1061, 1501, 1829]",68.5984388693479,77.0,2667,8.401561130652098,True,2,1,37,4,2,0,26.0,0.9335188196790785,47.19491477182055,54.6705253795598,9.469356743641939,17.320771435612247,0.006268493856743347
ITLT,7,2,918,65.359477124183,1,2,True,"[74, 74, 74]","[299, 669, 1499]",13.046873249910696,0.0,2324,-13.046873249910696,True,2,1,38,4,2,0,26.0,0.9335188196790785,47.19491477182055,54.6705253795598,-6.7899776949236,-12.419814237713975,0.014763357149244049
ITLT,7,4,329,182.370820668693,5,0,True,"[74, 74, 74, 74]","[589, 891, 1179, 1480]",87.06720173383901,99.0,2760,11.932798266160987,True,2,1,39,4,2,0,26.0,0.9335188196790785,47.19491477182055,54.6705253795598,11.275417365397274,20.624307681544476,0.02160963076307618
ITLT,7,3,918,65.359477124183,1,0,True,"[74, 74, 74, 74, 74]","[149, 669, 1669, 2819, 3720]",13.046873249910696,24.0,5404,10.953126750089304,True,2,1,40,4,2,0,26.0,0.9335188196790785,47.19491477182055,54.6705253795598,17.2100223050764,31.47952609855635,0.029570337734969258
ITLT,7,2,329,182.370820668693,5,2,True,"[74, 74, 74, 74]","[421, 731, 1051, 1371]",87.06720173383901,75.0,5247,-12.067201733839013,True,2,1,41,4,2,0,26.0,0.9335188196790785,47.19491477182055,54.6705253795598,-12.724582634602726,-23.275032654725848,0.021414062120379104
ITLT,7,6,918,65.359477124183,1,2,True,"[74, 74, 74, 74]","[851, 1829, 2851, 3811]",13.046873249910696,1.0,4113,-12.046873249910696,True,2,1,42,4,2,0,26.0,0.9335188196790785,47.19491477182055,54.6705253795598,-5.7899776949236,-10.590675057036044,0.011941430951379894
ITLT,7,5,504,119.04761904761905,3,1,True,"[74, 74, 74, 74]","[581, 1120, 1661, 2160]",56.30039424560527,50.0,1405,-6.300394245605268,True,2,1,43,4,2,0,26.0,0.9335188196790785,47.19491477182055,54.6705253795598,-4.083832041932453,-7.469897195206607,0.0012661535432235795
ITLT,7,4,1000,60.0,1,2,True,"[74, 74, 74, 74, 74]","[379, 699, 2000, 2960, 4099]",6.875176187496734,35.0,3315,28.124823812503266,True,2,1,44,4,2,0,26.0,0.9335188196790785,47.19491477182055,54.6705253795598,34.95822072278954,63.94345121084151,0.1864483460955891
ITLT,7,2,425,141.1764705882353,4,2,True,"[74, 74, 74, 74, 74]","[211, 771, 1069, 1429, 1821]",68.5984388693479,64.0,2270,-4.598438869347902,True,2,1,45,4,2,0,26.0,0.9335188196790785,47.19491477182055,54.6705253795598,-3.5306432563580614,-6.458037913200844,0.001031446945752283
ITLT,7,7,918,65.359477124183,1,2,True,"[74, 74, 74, 74, 74]","[360, 741, 1960, 2741, 3789]",13.046873249910696,22.0,3573,8.953126750089304,True,2,1,46,4,2,0,26.0,0.9335188196790785,47.19491477182055,54.6705253795598,15.2100223050764,27.821247737200487,0.02175768860877395
ITLT,7,3,550,109.0909090909091,3,1,True,"[74, 74, 74, 74]","[611, 1229, 1789, 2349]",50.0,50.0,1676,0.0,True,2,1,47,4,2,0,26.0,0.9335188196790785,47.19491477182055,54.6705253795598,2.8050852281794505,5.130891296003925,0.000125875981112185
ITLT,7,6,652,92.02453987730061,2,1,True,"[74, 74, 74, 74, 74]","[349, 720, 1320, 2000, 2669]",37.727982709047225,38.0,2525,0.2720172909527747,True,2,1,48,4,2,0,26.0,0.9335188196790785,47.19491477182055,54.6705253795598,4.223437883448064,7.725255709774323,0.0003368780020624191
ITLT,7,3,358,167.5977653631285,5,0,True,"[74, 74, 74, 74, 74]","[139, 629, 1000, 1248, 1560]",80.97360155738828,82.0,8820,1.0263984426117219,True,2,1,49,4,2,0,26.0,0.9335188196790785,47.19491477182055,54.6705253795598,0.9382238273880716,1.7161419629211292,0.00022135444679161382
ITLT,7,4,652,92.02453987730061,2,1,True,"[74, 74, 74, 74, 74]","[448, 760, 1459, 2099, 2768]",37.727982709047225,32.0,7877,-5.727982709047225,True,2,1,50,4,2,0,26.0,0.9335188196790785,47.19491477182055,54.6705253795598,-1.7765621165519363,-3.2495793742932584,0.0007830990893332073
ITLT,7,5,918,65.359477124183,1,2,True,"[74, 74, 74, 74]","[1040, 1909, 2899, 3771]",13.046873249910696,28.0,2058,14.953126750089304,True,2,1,51,4,2,0,26.0,0.9335188196790785,47.19491477182055,54.6705253795598,21.2100223050764,38.79608282126807,0.04878403639320617
ITLT,7,7,710,84.50704225352112,2,0,True,"[74, 74, 74, 74, 74]","[379, 760, 1509, 2269, 2880]",31.580629700998873,37.0,2467,5.419370299001127,True,2,1,52,4,2,0,26.0,0.9335188196790785,47.19491477182055,54.6705253795598,9.94501825632047,18.190822545193083,0.0044227218099831146
ITLT,7,6,463,129.58963282937364,4,0,True,,,62.42097125758927,67.0,3353,4.579028742410728,False,1,1,53,4,2,0,26.0,0.9335188196790785,47.19491477182055,54.6705253795598,6.2238647406431085,11.384314852350194,0.0019233382102049467
ITLT,7,7,358,167.5977653631285,5,0,True,,,80.97360155738828,89.0,3643,8.026398442611722,False,1,1,54,4,2,0,26.0,0.9335188196790785,47.19491477182055,54.6705253795598,7.938223827388072,14.520116227666641,0.00827107110459971
ITLT,7,3,774,77.51937984496124,2,0,True,,,25.354902613380577,22.0,3689,-3.3549026133805775,False,1,1,55,4,2,0,26.0,0.9335188196790785,47.19491477182055,54.6705253795598,1.7522936713174495,3.205189010260722,5.160349668303389e-05
ITLT,7,6,302,198.67549668874173,5,0,True,,,93.24415345434716,100.0,2453,6.755846545652844,False,1,1,56,4,2,0,26.0,0.9335188196790785,47.19491477182055,54.6705253795598,5.5214734493101645,10.099543421206139,0.008183722971715629
ITLT,7,4,463,129.58963282937364,4,2,True,,,62.42097125758927,50.0,1787,-12.420971257589272,False,1,1,57,4,2,0,26.0,0.9335188196790785,47.19491477182055,54.6705253795598,-10.776135259356892,-19.711051219174617,0.0076490292379103
ITLT,7,2,774,77.51937984496124,2,1,True,,,25.354902613380577,11.0,2198,-14.354902613380577,False,1,1,58,4,2,0,26.0,0.9335188196790785,47.19491477182055,54.6705253795598,-9.24770632868255,-16.915341977196512,0.012784191654105753
ITLT,7,7,425,141.1764705882353,4,0,True,,,68.5984388693479,58.0,1555,-10.598438869347902,False,1,1,59,4,2,0,26.0,0.9335188196790785,47.19491477182055,54.6705253795598,-9.530643256358061,-17.432872997268426,0.006969035366862083
ITLT,7,4,550,109.0909090909091,3,1,True,,,50.0,50.0,1672,0.0,False,1,1,60,4,2,0,26.0,0.9335188196790785,47.19491477182055,54.6705253795598,2.8050852281794505,5.130891296003925,0.000125875981112185
ITLT,7,4,425,141.1764705882353,4,0,True,,,68.5984388693479,64.0,1555,-4.598438869347902,False,1,2,61,4,2,0,26.0,0.9335188196790785,47.19491477182055,54.6705253795598,-3.5306432563580614,-6.458037913200844,0.001031446945752283
ITLT,7,3,504,119.04761904761905,3,2,True,"[74, 74, 74, 74]","[579, 1120, 1640, 2160]",56.30039424560527,50.0,946,-6.300394245605268,True,2,2,62,4,2,0,26.0,0.9335188196790785,47.19491477182055,54.6705253795598,-4.083832041932453,-7.469897195206607,0.0012661535432235795
ITLT,7,5,390,153.84615384615384,4,0,True,"[74, 74, 74, 74, 74]","[160, 640, 971, 1280, 1539]",74.79787473312055,80.0,2111,5.202125266879449,True,2,2,63,4,2,0,26.0,0.9335188196790785,47.19491477182055,54.6705253795598,5.690828429055216,10.409317250100731,0.0031150490944353037
ITLT,7,6,504,119.04761904761905,3,1,True,,,56.30039424560527,50.0,748,-6.300394245605268,False,1,2,64,4,2,0,26.0,0.9335188196790785,47.19491477182055,54.6705253795598,-4.083832041932453,-7.469897195206607,0.0012661535432235795
ITLT,7,4,918,65.359477124183,1,1,True,"[74, 74]","[608, 1600]",13.046873249910696,1.0,2380,-12.046873249910696,True,2,2,65,4,2,0,26.0,0.9335188196790785,47.19491477182055,54.6705253795598,-5.7899776949236,-10.590675057036044,0.011941430951379894
ITLT,7,2,390,153.84615384615384,4,0,True,"[74, 74]","[589, 1011]",74.79787473312055,92.0,1886,17.20212526687945,True,2,2,66,4,2,0,26.0,0.9335188196790785,47.19491477182055,54.6705253795598,17.690828429055216,32.3589874182359,0.02936347441783415
ITLT,7,6,1000,60.0,1,1,True,,,6.875176187496734,0.0,2586,-6.875176187496734,False,1,2,67,4,2,0,26.0,0.9335188196790785,47.19491477182055,54.6705253795598,-0.04177927721045904,-0.07642011288605517,0.00232190102989112
ITLT,7,5,599,100.1669449081803,3,0,True,,,43.84378078116181,43.0,2388,-0.8437807811618114,False,1,2,68,4,2,0,26.0,0.9335188196790785,47.19491477182055,54.6705253795598,2.536360009091986,4.639355468934784,5.2821360781615643e-05
ITLT,7,2,843,71.17437722419929,1,1,True,"[74, 74, 74]","[509, 2659, 3379]",19.194949373496982,11.0,1715,-8.194949373496982,True,2,2,69,4,2,0,26.0,0.9335188196790785,47.19491477182055,54.6705253795598,-2.5123487299233958,-4.595435497429319,0.0033573344450564657
ITLT,7,3,652,92.02453987730061,2,1,True,"[74, 74, 74, 74]","[400, 1411, 2021, 2560]",37.727982709047225,34.0,2750,-3.7279827090472253,True,2,2,70,4,2,0,26.0,0.9335188196790785,47.19491477182055,54.6705253795598,0.2234378834480637,0.4086989870626021,0.0001571979228982396
ITLT,7,6,390,153.84615384615384,4,1,True,"[74, 74, 74, 74, 74]","[309, 720, 960, 1291, 1621]",74.79787473312055,69.0,4508,-5.797874733120551,True,2,2,71,4,2,0,26.0,0.9335188196790785,47.19491477182055,54.6705253795598,-5.309171570944784,-9.711213737356502,0.002510383655841725
ITLT,7,7,1000,60.0,1,0,True,"[74, 74, 74, 74]","[680, 2189, 3099, 4019]",6.875176187496734,24.0,1890,17.124823812503266,True,2,2,72,4,2,0,26.0,0.9335188196790785,47.19491477182055,54.6705253795598,23.95822072278954,43.82292022338427,0.0789300510484095
ITLT,7,2,652,92.02453987730061,2,2,True,"[74, 74, 74, 74, 74]","[331, 709, 1421, 2069, 2709]",37.727982709047225,25.0,3082,-12.727982709047225,True,2,2,73,4,2,0,26.0,0.9335188196790785,47.19491477182055,54.6705253795598,-8.776562116551936,-16.05355363903877,0.006731394503445145
ITLT,7,7,329,182.370820668693,5,2,True,"[74, 74, 74, 74]","[360, 829, 1189, 1491]",87.06720173383901,94.0,2060,6.932798266160987,True,2,2,74,4,2,0,26.0,0.9335188196790785,47.19491477182055,54.6705253795598,6.275417365397274,11.478611778154827,0.0073771174673612355
ITLT,7,6,774,77.51937984496124,2,2,True,"[74, 74, 74]","[1661, 2331, 3040]",25.354902613380577,28.0,1401,2.6450973866194225,True,2,2,75,4,2,0,26.0,0.9335188196790785,47.19491477182055,54.6705253795598,7.7522936713174495,14.180024094328303,0.0025574418820807185
ITLT,7,7,599,100.1669449081803,3,1,True,"[74, 74, 74, 74, 74]","[309, 731, 1269, 1901, 2560]",43.84378078116181,50.0,494,6.156219218838189,True,2,2,76,4,2,0,26.0,0.9335188196790785,47.19491477182055,54.6705253795598,9.536360009091986,17.443329733680294,0.003313030956330753
ITLT,7,6,358,167.5977653631285,5,2,True,"[74, 74, 74, 74, 74]","[291, 659, 971, 1280, 1579]",80.97360155738828,72.0,2637,-8.973601557388278,True,2,2,77,4,2,0,26.0,0.9335188196790785,47.19491477182055,54.6705253795598,-9.061776172611928,-16.575249843858174,0.008796525042011264
ITLT,7,7,774,77.51937984496124,2,2,True,"[74, 74, 74, 74, 74]","[301, 651, 1571, 2301, 3131]",25.354902613380577,21.0,2570,-4.3549026133805775,True,2,2,78,4,2,0,26.0,0.9335188196790785,47.19491477182055,54.6705253795598,0.7522936713174495,1.3760498295827917,0.0002825540138113842
ITLT,7,3,463,129.58963282937364,4,2,True,"[74, 74, 74, 74, 74]","[229, 600, 1019, 1448, 1888]",62.42097125758927,64.0,2394,1.5790287424107277,True,2,2,79,4,2,0,26.0,0.9335188196790785,47.19491477182055,54.6705253795598,3.2238647406431085,5.896897310316404,0.00042777464778138643
ITLT,7,2,302,198.67549668874173,5,1,True,"[74, 74, 74, 74, 74]","[19, 509, 808, 1099, 1368]",93.24415345434716,91.0,2317,-2.244153454347156,True,2,2,80,4,2,0,26.0,0.9335188196790785,47.19491477182055,54.6705253795598,-3.4785265506898355,-6.362709204895232,0.0010837761161016305
ITLT,7,7,463,129.58963282937364,4,2,True,"[74, 74, 74, 74, 74]","[120, 629, 1091, 1571, 2011]",62.42097125758927,63.0,1250,0.5790287424107277,True,2,2,81,4,2,0,26.0,0.9335188196790785,47.19491477182055,54.6705253795598,2.2238647406431085,4.067758129638474,0.00016791818660555886
ITLT,7,5,843,71.17437722419929,1,0,True,"[74, 74, 74, 74, 74]","[48, 408, 1640, 2619, 3560]",19.194949373496982,21.0,1715,1.805050626503018,True,2,2,82,4,2,0,26.0,0.9335188196790785,47.19491477182055,54.6705253795598,7.487651270076604,13.695956309349983,0.0025662465327415725
ITLT,7,2,550,109.0909090909091,3,0,True,"[74, 74, 74, 74, 74]","[0, 480, 1069, 1619, 2088]",50.0,33.0,1910,-17.0,True,2,2,83,4,2,0,26.0,0.9335188196790785,47.19491477182055,54.6705253795598,-14.19491477182055,-25.96447477552089,0.011587787360305213
ITLT,7,3,302,198.67549668874173,5,2,True,"[74, 74, 74, 74]","[419, 731, 1011, 1309]",93.24415345434716,100.0,4583,6.755846545652844,True,2,2,84,4,2,0,26.0,0.9335188196790785,47.19491477182055,54.6705253795598,5.5214734493101645,10.099543421206139,0.008183722971715629
ITLT,7,5,652,92.02453987730061,2,2,True,"[74, 74, 74, 74, 74]","[341, 701, 1392, 2141, 2720]",37.727982709047225,15.0,1570,-22.727982709047225,True,2,2,85,4,2,0,26.0,0.9335188196790785,47.19491477182055,54.6705253795598,-18.776562116551936,-34.34494544581807,0.025368626465989554
ITLT,7,4,358,167.5977653631285,5,1,True,"[74, 74, 74, 74]","[469, 811, 1120, 1480]",80.97360155738828,79.0,1499,-1.9736015573882781,True,2,2,86,4,2,0,26.0,0.9335188196790785,47.19491477182055,54.6705253795598,-2.0617761726119284,-3.7712755791126615,0.0003140816122171816
ITLT,7,3,843,71.17437722419929,1,1,True,"[74, 74, 74, 74, 74]","[451, 749, 1771, 2629, 3400]",19.194949373496982,32.0,3743,12.805050626503018,True,2,2,87,4,2,0,26.0,0.9335188196790785,47.19491477182055,54.6705253795598,18.487651270076604,33.81648729680722,0.028940420421043042
ITLT,7,4,599,100.1669449081803,3,0,True,"[74, 74, 74, 74, 74]","[208, 589, 1109, 1699, 2248]",43.84378078116181,50.0,947,6.156219218838189,True,2,2,88,4,2,0,26.0,0.9335188196790785,47.19491477182055,54.6705253795598,9.536360009091986,17.443329733680294,0.003313030956330753
ITLT,7,5,358,167.5977653631285,5,2,True,"[74, 74, 74, 74]","[512, 821, 1200, 1571]",80.97360155738828,83.0,1322,2.026398442611722,True,2,2,89,4,2,0,26.0,0.9335188196790785,47.19491477182055,54.6705253795598,1.9382238273880716,3.545281143599059,0.0006627928227241058
ITLT,7,4,774,77.51937984496124,2,0,True,"[74, 74, 74, 74]","[400, 1659, 2389, 2989]",25.354902613380577,28.0,1860,2.6450973866194225,True,2,2,90,4,2,0,26.0,0.9335188196790785,47.19491477182055,54.6705253795598,7.7522936713174495,14.180024094328303,0.0025574418820807185
ITLT,8,4,774,77.51937984496124,2,1,False,,,25.354902613380577,19.0,13374.95500000022,-6.3549026133805775,False,0,0,1,4,0,2,17.0,0.9696182553635582,49.75384934059795,55.579812315372486,-3.358451595750264,-6.042574553317392,0.002217178857126223
ITLT,8,2,463,129.58963282937364,4,2,False,,,62.42097125758927,67.0,6789.429999999818,4.579028742410728,False,0,0,2,4,0,2,17.0,0.9696182553635582,49.75384934059795,55.579812315372486,3.4390456339730946,6.187580509374822,0.0009557288180261611
ITLT,8,7,599,100.1669449081803,3,2,False,,,43.84378078116181,43.0,3103.729999999865,-0.8437807811618114,False,0,0,3,4,0,2,17.0,0.9696182553635582,49.75384934059795,55.579812315372486,0.08938083450835421,0.16081528667492984,7.2506435336938605e-06
ITLT,8,2,358,167.5977653631285,5,2,False,,,80.97360155738828,82.0,18860.734999999288,1.0263984426117219,False,0,0,4,4,0,2,17.0,0.9696182553635582,49.75384934059795,55.579812315372486,-2.1839885664133476,-3.929463730501464,0.0021433547106095296
ITLT,8,3,652,92.02453987730061,2,2,False,,,37.727982709047225,35.0,3394.8899999996065,-2.7279827090472253,False,0,0,5,4,0,2,17.0,0.9696182553635582,49.75384934059795,55.579812315372486,-1.112320985354728,-2.0013039609474856,0.00022800385389579574
ITLT,8,4,302,198.67549668874173,5,2,False,,,93.24415345434716,100.0,5760.874999999942,6.755846545652844,False,0,0,6,4,0,2,17.0,0.9696182553635582,49.75384934059795,55.579812315372486,2.176112004806413,3.915292107246888,0.0005154893463932174
ITLT,8,5,425,141.1764705882353,4,0,False,,,68.5984388693479,80.0,4392.550000000512,11.401561130652098,False,0,0,7,4,0,2,17.0,0.9696182553635582,49.75384934059795,55.579812315372486,9.572195825056355,17.222432797616406,0.011503408681766714
ITLT,8,6,1000,60.0,1,1,False,,,6.875176187496734,0.0,6911.1849999999395,-6.875176187496734,False,0,0,8,4,0,2,17.0,0.9696182553635582,49.75384934059795,55.579812315372486,-1.8164570679492016,-3.2681957571972555,0.0010649021690153284
ITLT,8,7,390,153.84615384615384,4,0,False,,,74.79787473312055,75.0,6890.179999999411,0.20212526687944887,False,0,0,9,4,0,2,17.0,0.9696182553635582,49.75384934059795,55.579812315372486,-2.319073810337116,-4.17251104983616,0.0017439359147647928
ITLT,8,6,774,77.51937984496124,2,1,False,,,25.354902613380577,18.0,3302.045000000333,-7.3549026133805775,False,0,0,10,4,0,2,17.0,0.9696182553635582,49.75384934059795,55.579812315372486,-4.358451595750264,-7.841788977298841,0.0036780633423515305
ITLT,8,5,550,109.0909090909091,3,1,False,,,50.0,50.0,1072.079999999958,0.0,False,0,0,11,4,0,2,17.0,0.9696182553635582,49.75384934059795,55.579812315372486,0.24615065940204772,0.4428778168687093,3.4903710840951004e-06
ITLT,8,6,390,153.84615384615384,4,1,False,,,74.79787473312055,83.0,4363.715000000375,8.202125266879449,False,0,0,12,4,0,2,17.0,0.9696182553635582,49.75384934059795,55.579812315372486,5.680926189662884,10.221204342015438,0.004456088169313619
ITLT,8,2,504,119.04761904761905,3,0,False,,,56.30039424560527,50.0,807.399999999674,-6.300394245605268,False,0,0,13,4,0,2,17.0,0.9696182553635582,49.75384934059795,55.579812315372486,-6.7573439342698265,-12.15791067434183,0.005422653166540135
ITLT,8,5,358,167.5977653631285,5,2,False,,,80.97360155738828,80.0,7955.1549999996205,-0.9736015573882781,False,0,0,14,4,0,2,17.0,0.9696182553635582,49.75384934059795,55.579812315372486,-4.183988566413348,-7.527892578464364,0.005915615596294872
ITLT,8,3,599,100.1669449081803,3,1,False,,,43.84378078116181,43.0,2092.740000000049,-0.8437807811618114,False,0,0,15,4,0,2,17.0,0.9696182553635582,49.75384934059795,55.579812315372486,0.08938083450835421,0.16081528667492984,7.2506435336938605e-06
ITLT,8,5,918,65.359477124183,1,1,False,,,13.046873249910696,13.0,2916.9300000003423,-0.0468732499106963,False,0,0,16,4,0,2,17.0,0.9696182553635582,49.75384934059795,55.579812315372486,4.323107644124725,7.77819762973367,0.005665918165934973
ITLT,8,6,550,109.0909090909091,3,1,False,,,50.0,43.0,30234.27500000072,-7.0,False,0,0,17,4,0,2,17.0,0.9696182553635582,49.75384934059795,55.579812315372486,-6.753849340597952,-12.15162315100144,0.005015217116296467
ITLT,8,7,652,92.02453987730061,2,1,False,,,37.727982709047225,32.0,21561.64500000066,-5.727982709047225,False,0,0,18,4,0,2,17.0,0.9696182553635582,49.75384934059795,55.579812315372486,-4.112320985354728,-7.398947232891835,0.0022789843127558195
ITLT,8,4,599,100.1669449081803,3,2,False,,,43.84378078116181,49.0,6296.829999999318,5.156219218838189,False,0,0,19,4,0,2,17.0,0.9696182553635582,49.75384934059795,55.579812315372486,6.089380834508354,10.956101830563629,0.0033678107834825602
ITLT,8,2,710,84.50704225352112,2,0,False,,,31.580629700998873,34.0,91050.0700000003,2.4193702990011268,False,0,0,20,4,0,2,17.0,0.9696182553635582,49.75384934059795,55.579812315372486,4.721053543118625,8.49418763116776,0.0029743782783314995
ITLT,8,3,358,167.5977653631285,5,1,False,,,80.97360155738828,93.0,7353.1849999999395,12.026398442611722,False,0,0,21,4,0,2,17.0,0.9696182553635582,49.75384934059795,55.579812315372486,8.816011433586652,15.861894933294485,0.014907250525950103
ITLT,8,2,843,71.17437722419929,1,0,False,,,19.194949373496982,3.0,6715.37000000081,-16.194949373496982,False,0,0,22,4,0,2,17.0,0.9696182553635582,49.75384934059795,55.579812315372486,-12.511070696866248,-22.510098857253404,0.036832857801826546
ITLT,8,7,329,182.370820668693,5,0,False,,,87.06720173383901,83.0,5581.454999999492,-4.067201733839013,False,0,0,23,4,0,2,17.0,0.9696182553635582,49.75384934059795,55.579812315372486,-7.9576116490543995,-14.317449659421486,0.023363818539304297
ITLT,8,4,1000,60.0,1,0,False,,,6.875176187496734,0.0,3154.6749999996973,-6.875176187496734,False,0,0,24,4,0,2,17.0,0.9696182553635582,49.75384934059795,55.579812315372486,-1.8164570679492016,-3.2681957571972555,0.0010649021690153284
ITLT,8,5,774,77.51937984496124,2,0,False,,,25.354902613380577,4.0,6159.259999999427,-21.354902613380577,False,0,0,25,4,0,2,17.0,0.9696182553635582,49.75384934059795,55.579812315372486,-18.358451595750264,-33.03079091303914,0.06274453028909849
ITLT,8,7,1000,60.0,1,0,False,,,6.875176187496734,0.0,4781.690000000759,-6.875176187496734,False,0,0,26,4,0,2,17.0,0.9696182553635582,49.75384934059795,55.579812315372486,-1.8164570679492016,-3.2681957571972555,0.0010649021690153284
ITLT,8,4,463,129.58963282937364,4,2,False,,,62.42097125758927,69.0,4246.114999999874,6.579028742410728,False,0,0,27,4,0,2,17.0,0.9696182553635582,49.75384934059795,55.579812315372486,5.439045633973095,9.786009357337722,0.0027749699825410693
ITLT,8,3,918,65.359477124183,1,0,False,,,13.046873249910696,10.0,6342.499999999767,-3.0468732499106963,False,0,0,28,4,0,2,17.0,0.9696182553635582,49.75384934059795,55.579812315372486,1.3231076441247254,2.380554357789321,0.0005567613265305035
ITLT,8,6,329,182.370820668693,5,1,False,,,87.06720173383901,97.0,9083.415000000037,9.932798266160987,False,0,0,29,4,0,2,17.0,0.9696182553635582,49.75384934059795,55.579812315372486,6.0423883509456005,10.871552276318813,0.007779270280705047
ITLT,8,3,463,129.58963282937364,4,0,False,,,62.42097125758927,64.0,10145.26500000013,1.5790287424107277,False,0,0,30,4,0,2,17.0,0.9696182553635582,49.75384934059795,55.579812315372486,0.4390456339730946,0.789937237430472,2.99226235336255e-06
ITLT,8,4,710,84.50704225352112,2,2,False,,,31.580629700998873,29.0,3605.540000000503,-2.5806297009988732,False,0,1,31,4,0,2,17.0,0.9696182553635582,49.75384934059795,55.579812315372486,-0.27894645688137487,-0.5018844887394892,3.2660873137036524e-05
ITLT,8,3,1000,60.0,1,2,False,,,6.875176187496734,1.0,4701.364999999874,-5.875176187496734,False,0,1,32,4,0,2,17.0,0.9696182553635582,49.75384934059795,55.579812315372486,-0.8164570679492016,-1.4689813332158064,0.00017725832272989063
ITLT,8,5,710,84.50704225352112,2,1,False,,,31.580629700998873,42.0,4166.914999999688,10.419370299001127,False,0,1,33,4,0,2,17.0,0.9696182553635582,49.75384934059795,55.579812315372486,12.721053543118625,22.88790302301936,0.022783604871566054
ITLT,8,3,329,182.370820668693,5,0,False,,,87.06720173383901,98.0,8126.639999999548,10.932798266160987,False,0,1,34,4,0,2,17.0,0.9696182553635582,49.75384934059795,55.579812315372486,7.0423883509456005,12.670766700300263,0.011112997670444607
ITLT,8,5,843,71.17437722419929,1,2,False,,,19.194949373496982,13.0,2832.674999999581,-6.194949373496982,False,0,1,35,4,0,2,17.0,0.9696182553635582,49.75384934059795,55.579812315372486,-2.5110706968662484,-4.517954617438905,0.0015155569819110446
ITLT,8,7,774,77.51937984496124,2,2,False,,,25.354902613380577,34.0,4883.514999999548,8.645097386619423,False,0,1,36,4,0,2,17.0,0.9696182553635582,49.75384934059795,55.579812315372486,11.641548404249736,20.945641806404357,0.02443429346856673
ITLT,8,5,302,198.67549668874173,5,1,False,,,93.24415345434716,97.0,7587.470000000438,3.755846545652844,False,0,1,37,4,0,2,17.0,0.9696182553635582,49.75384934059795,55.579812315372486,-0.8238879951935871,-1.4823511646974614,0.0012414405601462962
ITLT,8,4,504,119.04761904761905,3,0,False,,,56.30039424560527,56.0,3130.390000000247,-0.3003942456052684,False,0,1,38,4,0,2,17.0,0.9696182553635582,49.75384934059795,55.579812315372486,-0.7573439342698265,-1.3626241304531308,0.00016665205210906044
ITLT,8,7,425,141.1764705882353,4,1,False,,,68.5984388693479,55.0,3596.609999999637,-13.598438869347902,False,0,1,39,4,0,2,17.0,0.9696182553635582,49.75384934059795,55.579812315372486,-15.427804174943645,-27.75792780191984,0.037729478428809506
ITLT,8,4,918,65.359477124183,1,1,False,,,13.046873249910696,20.0,2199.3299999994924,6.953126750089304,False,0,1,40,4,0,2,17.0,0.9696182553635582,49.75384934059795,55.579812315372486,11.323107644124725,20.37269859760382,0.03835753608609758
ITLT,8,6,710,84.50704225352112,2,2,False,,,31.580629700998873,36.0,2979.3499999996275,4.419370299001127,False,0,1,41,4,0,2,17.0,0.9696182553635582,49.75384934059795,55.579812315372486,6.721053543118625,12.09261647913066,0.006184091225302822
ITLT,8,5,504,119.04761904761905,3,2,False,,,56.30039424560527,53.0,2128.474999999511,-3.3003942456052684,False,0,1,42,4,0,2,17.0,0.9696182553635582,49.75384934059795,55.579812315372486,-3.7573439342698265,-6.760267402397481,0.0018726410104309113
ITLT,8,7,843,71.17437722419929,1,1,False,,,19.194949373496982,35.0,4215.665000000619,15.805050626503018,False,0,1,43,4,0,2,17.0,0.9696182553635582,49.75384934059795,55.579812315372486,19.48892930313375,35.06476271015299,0.0885925739444086
ITLT,8,3,550,109.0909090909091,3,2,False,,,50.0,50.0,2567.450000000419,0.0,False,0,1,44,4,0,2,17.0,0.9696182553635582,49.75384934059795,55.579812315372486,0.24615065940204772,0.4428778168687093,3.4903710840951004e-06
ITLT,8,6,843,71.17437722419929,1,2,False,,,19.194949373496982,20.0,2763.385000000242,0.805050626503018,False,0,1,45,4,0,2,17.0,0.9696182553635582,49.75384934059795,55.579812315372486,4.488929303133752,8.076546350431244,0.004646052051707532
ITLT,8,2,652,92.02453987730061,2,2,False,,,37.727982709047225,45.0,3035.1950000004144,7.272017290952775,False,0,1,46,4,0,2,17.0,0.9696182553635582,49.75384934059795,55.579812315372486,8.887679014645272,15.990840278867013,0.008779048676062787
ITLT,8,6,302,198.67549668874173,5,0,False,,,93.24415345434716,100.0,5957.924999999697,6.755846545652844,False,0,1,47,4,0,2,17.0,0.9696182553635582,49.75384934059795,55.579812315372486,2.176112004806413,3.915292107246888,0.0005154893463932174
ITLT,8,3,710,84.50704225352112,2,1,False,,,31.580629700998873,36.0,2265.8849999997765,4.419370299001127,False,0,1,48,4,0,2,17.0,0.9696182553635582,49.75384934059795,55.579812315372486,6.721053543118625,12.09261647913066,0.006184091225302822
ITLT,8,7,302,198.67549668874173,5,1,False,,,93.24415345434716,100.0,2565.810000000056,6.755846545652844,False,0,1,49,4,0,2,17.0,0.9696182553635582,49.75384934059795,55.579812315372486,2.176112004806413,3.915292107246888,0.0005154893463932174
ITLT,8,5,463,129.58963282937364,4,2,False,,,62.42097125758927,62.0,2557.2949999996927,-0.42097125758927234,False,0,1,50,4,0,2,17.0,0.9696182553635582,49.75384934059795,55.579812315372486,-1.5609543660269054,-2.808491610532428,0.00055191801930454
ITLT,8,2,302,198.67549668874173,5,1,False,,,93.24415345434716,97.0,3695.0299999999115,3.755846545652844,False,0,1,51,4,0,2,17.0,0.9696182553635582,49.75384934059795,55.579812315372486,-0.8238879951935871,-1.4823511646974614,0.0012414405601462962
ITLT,8,6,599,100.1669449081803,3,2,False,,,43.84378078116181,48.0,4832.97500000021,4.156219218838189,False,0,1,52,4,0,2,17.0,0.9696182553635582,49.75384934059795,55.579812315372486,5.089380834508354,9.156887406582179,0.002295551910627183
ITLT,8,3,425,141.1764705882353,4,2,False,,,68.5984388693479,64.0,3015.195000000065,-4.598438869347902,False,0,1,53,4,0,2,17.0,0.9696182553635582,49.75384934059795,55.579812315372486,-6.427804174943645,-11.564997986086789,0.007344948580879262
ITLT,8,7,550,109.0909090909091,3,1,False,,,50.0,50.0,1455.7400000002235,0.0,False,0,1,54,4,0,2,17.0,0.9696182553635582,49.75384934059795,55.579812315372486,0.24615065940204772,0.4428778168687093,3.4903710840951004e-06
ITLT,8,6,425,141.1764705882353,4,2,False,,,68.5984388693479,55.0,5665.200000000419,-13.598438869347902,False,0,1,55,4,0,2,17.0,0.9696182553635582,49.75384934059795,55.579812315372486,-15.427804174943645,-27.75792780191984,0.037729478428809506
ITLT,8,2,1000,60.0,1,2,False,,,6.875176187496734,0.0,2520.4050000002608,-6.875176187496734,False,0,1,56,4,0,2,17.0,0.9696182553635582,49.75384934059795,55.579812315372486,-1.8164570679492016,-3.2681957571972555,0.0010649021690153284
ITLT,8,4,425,141.1764705882353,4,1,False,,,68.5984388693479,66.0,2560.125,-2.598438869347902,False,0,1,57,4,0,2,17.0,0.9696182553635582,49.75384934059795,55.579812315372486,-4.427804174943645,-7.96656913812389,0.0037924779497967537
ITLT,8,2,599,100.1669449081803,3,2,False,,,43.84378078116181,46.0,3524.5000000004657,2.1562192188381886,False,0,1,58,4,0,2,17.0,0.9696182553635582,49.75384934059795,55.579812315372486,3.089380834508354,5.55845855861928,0.0007656327843531079
ITLT,8,4,329,182.370820668693,5,1,False,,,87.06720173383901,95.0,6052.149999999674,7.932798266160987,False,0,1,59,4,0,2,17.0,0.9696182553635582,49.75384934059795,55.579812315372486,4.0423883509456005,7.273123428355912,0.0028905792645102938
ITLT,8,2,425,141.1764705882353,4,0,False,,,68.5984388693479,66.0,2513.3249999999534,-2.598438869347902,False,0,1,60,4,0,2,17.0,0.9696182553635582,49.75384934059795,55.579812315372486,-4.427804174943645,-7.96656913812389,0.0037924779497967537
ITLT,8,5,1000,60.0,1,0,False,,,6.875176187496734,0.0,4982.954999999609,-6.875176187496734,False,0,2,61,4,0,2,17.0,0.9696182553635582,49.75384934059795,55.579812315372486,-1.8164570679492016,-3.2681957571972555,0.0010649021690153284
ITLT,8,6,358,167.5977653631285,5,2,False,,,80.97360155738828,79.0,4829.780000000028,-1.9736015573882781,False,0,2,62,4,0,2,17.0,0.9696182553635582,49.75384934059795,55.579812315372486,-5.183988566413348,-9.327107002445812,0.008504780948646842
ITLT,8,4,550,109.0909090909091,3,1,False,,,50.0,49.0,7359.255000000354,-1.0,False,0,2,63,4,0,2,17.0,0.9696182553635582,49.75384934059795,55.579812315372486,-0.7538493405979523,-1.3563366071127405,0.00013731727774891827
ITLT,8,5,329,182.370820668693,5,0,False,,,87.06720173383901,100.0,13703.314999999944,12.932798266160987,False,0,2,64,4,0,2,17.0,0.9696182553635582,49.75384934059795,55.579812315372486,9.0423883509456,16.26919554826316,0.019559216213208115
ITLT,8,2,774,77.51937984496124,2,1,False,,,25.354902613380577,15.0,4575.340000000317,-10.354902613380577,False,0,2,65,4,0,2,17.0,0.9696182553635582,49.75384934059795,55.579812315372486,-7.358451595750264,-13.23943224924319,0.010267235892518465
ITLT,8,5,599,100.1669449081803,3,0,False,,,43.84378078116181,43.0,3188.374999999767,-0.8437807811618114,False,0,2,66,4,0,2,17.0,0.9696182553635582,49.75384934059795,55.579812315372486,0.08938083450835421,0.16081528667492984,7.2506435336938605e-06
ITLT,8,2,329,182.370820668693,5,0,False,,,87.06720173383901,85.0,3532.0800000000745,-2.0672017338390134,False,0,2,67,4,0,2,17.0,0.9696182553635582,49.75384934059795,55.579812315372486,-5.9576116490543995,-10.719020811458588,0.014022399449224043
ITLT,8,7,504,119.04761904761905,3,0,False,,,56.30039424560527,50.0,1484.320000000298,-6.300394245605268,False,0,2,68,4,0,2,17.0,0.9696182553635582,49.75384934059795,55.579812315372486,-6.7573439342698265,-12.15791067434183,0.005422653166540135
ITLT,8,5,652,92.02453987730061,2,2,False,,,37.727982709047225,35.0,4210.65000000014,-2.7279827090472253,False,0,2,69,4,0,2,17.0,0.9696182553635582,49.75384934059795,55.579812315372486,-1.112320985354728,-2.0013039609474856,0.00022800385389579574
ITLT,8,6,463,129.58963282937364,4,0,False,,,62.42097125758927,62.0,2597.9500000001863,-0.42097125758927234,False,0,2,70,4,0,2,17.0,0.9696182553635582,49.75384934059795,55.579812315372486,-1.5609543660269054,-2.808491610532428,0.00055191801930454
ITLT,8,2,918,65.359477124183,1,1,False,,,13.046873249910696,2.0,3325.66500000027,-11.046873249910696,False,0,2,71,4,0,2,17.0,0.9696182553635582,49.75384934059795,55.579812315372486,-6.676892355875275,-12.013161034062279,0.013043516982641308
ITLT,8,4,652,92.02453987730061,2,0,False,,,37.727982709047225,45.0,5012.789999999804,7.272017290952775,False,0,2,72,4,0,2,17.0,0.9696182553635582,49.75384934059795,55.579812315372486,8.887679014645272,15.990840278867013,0.008779048676062787
ITLT,8,6,918,65.359477124183,1,0,False,,,13.046873249910696,22.0,2692.7299999997485,8.953126750089304,False,0,2,73,4,0,2,17.0,0.9696182553635582,49.75384934059795,55.579812315372486,13.323107644124725,23.97112744556672,0.05303892028197174
ITLT,8,5,390,153.84615384615384,4,1,False,,,74.79787473312055,90.0,4765.409999999916,15.202125266879449,False,0,2,74,4,0,2,17.0,0.9696182553635582,49.75384934059795,55.579812315372486,12.680926189662884,22.815705309885587,0.026148194670702608
ITLT,8,4,843,71.17437722419929,1,2,False,,,19.194949373496982,20.0,2846.540000000503,0.805050626503018,False,0,2,75,4,0,2,17.0,0.9696182553635582,49.75384934059795,55.579812315372486,4.488929303133752,8.076546350431244,0.004646052051707532
ITLT,8,3,774,77.51937984496124,2,0,False,,,25.354902613380577,13.0,2456.6950000007637,-12.354902613380577,False,0,2,76,4,0,2,17.0,0.9696182553635582,49.75384934059795,55.579812315372486,-9.358451595750264,-16.83786109720609,0.01649878350470559
ITLT,8,2,390,153.84615384615384,4,1,False,,,74.79787473312055,95.0,3504.464999999851,20.20212526687945,False,0,2,77,4,0,2,17.0,0.9696182553635582,49.75384934059795,55.579812315372486,17.680926189662884,31.811777429792837,0.052681969759499764
ITLT,8,3,843,71.17437722419929,1,1,False,,,19.194949373496982,0.0,10624.354999999981,-19.194949373496982,False,0,2,78,4,0,2,17.0,0.9696182553635582,49.75384934059795,55.579812315372486,-15.511070696866248,-27.907742129197754,0.0565562129226395
ITLT,8,6,652,92.02453987730061,2,0,False,,,37.727982709047225,43.0,5395.155000000261,5.272017290952775,False,0,2,79,4,0,2,17.0,0.9696182553635582,49.75384934059795,55.579812315372486,6.887679014645272,12.392411430904113,0.005174975545266263
ITLT,8,4,390,153.84615384615384,4,0,False,,,74.79787473312055,100.0,12641.464999999851,25.20212526687945,False,0,2,80,4,0,2,17.0,0.9696182553635582,49.75384934059795,55.579812315372486,22.680926189662884,40.80784954970009,0.0884152559333725
ITLT,8,6,504,119.04761904761905,3,0,False,,,56.30039424560527,53.0,2108.1450000002515,-3.3003942456052684,False,0,2,81,4,0,2,17.0,0.9696182553635582,49.75384934059795,55.579812315372486,-3.7573439342698265,-6.760267402397481,0.0018726410104309113
ITLT,8,3,390,153.84615384615384,4,1,False,,,74.79787473312055,68.0,1972.0600000000559,-6.797874733120551,False,0,2,82,4,0,2,17.0,0.9696182553635582,49.75384934059795,55.579812315372486,-9.319073810337116,-16.76701201770631,0.01868977597069334
ITLT,8,7,358,167.5977653631285,5,2,False,,,80.97360155738828,80.0,3131.39499999932,-0.9736015573882781,False,0,2,83,4,0,2,17.0,0.9696182553635582,49.75384934059795,55.579812315372486,-4.183988566413348,-7.527892578464364,0.005915615596294872
ITLT,8,2,550,109.0909090909091,3,1,False,,,50.0,47.0,2241.0249999992084,-3.0,False,0,2,84,4,0,2,17.0,0.9696182553635582,49.75384934059795,55.579812315372486,-2.7538493405979523,-4.95476545507564,0.000987105148015509
ITLT,8,7,463,129.58963282937364,4,2,False,,,62.42097125758927,53.0,8861.670000000391,-9.420971257589272,False,0,2,85,4,0,2,17.0,0.9696182553635582,49.75384934059795,55.579812315372486,-10.560954366026905,-19.00142142636548,0.01474451018684196
ITLT,8,4,358,167.5977653631285,5,0,False,,,80.97360155738828,98.0,2402.4650000003166,17.026398442611722,False,0,2,86,4,0,2,17.0,0.9696182553635582,49.75384934059795,55.579812315372486,13.816011433586652,24.857967053201733,0.03945661893801957
ITLT,8,7,710,84.50704225352112,2,0,False,,,31.580629700998873,30.0,5062.170000000158,-1.5806297009988732,False,0,2,87,4,0,2,17.0,0.9696182553635582,49.75384934059795,55.579812315372486,0.7210535431186251,1.2973299352419607,4.0139787063490245e-05
ITLT,8,3,504,119.04761904761905,3,0,False,,,56.30039424560527,53.0,2654.7700000000186,-3.3003942456052684,False,0,2,88,4,0,2,17.0,0.9696182553635582,49.75384934059795,55.579812315372486,-3.7573439342698265,-6.760267402397481,0.0018726410104309113
ITLT,8,7,918,65.359477124183,1,2,False,,,13.046873249910696,6.0,2879.100000000093,-7.046873249910696,False,0,2,89,4,0,2,17.0,0.9696182553635582,49.75384934059795,55.579812315372486,-2.6768923558752746,-4.816303338136478,0.002052652991945411
ITLT,8,3,302,198.67549668874173,5,2,False,,,93.24415345434716,100.0,2253.6850000005215,6.755846545652844,False,0,2,90,4,0,2,17.0,0.9696182553635582,49.75384934059795,55.579812315372486,2.176112004806413,3.915292107246888,0.0005154893463932174
ITLT,10,2,550,109.0909090909091,3,2,True,,,50.0,10.0,5975.435000000289,-40.0,False,1,0,1,6,0,0,17.0,0.9149811558168224,46.03931256236699,42.90667757186711,-36.03931256236699,-83.9946474578519,0.07006065903153176
ITLT,10,7,918,65.359477124183,1,2,True,,,13.046873249910696,0.0,2723.265000000538,-13.046873249910696,False,1,0,2,6,0,0,17.0,0.9149811558168224,46.03931256236699,42.90667757186711,-14.328594667598605,-33.394789525706656,0.03219712313343036
ITLT,10,2,425,141.1764705882353,4,2,True,,,68.5984388693479,68.0,3364.6150000022317,-0.5984388693479019,False,1,0,3,6,0,0,17.0,0.9149811558168224,46.03931256236699,42.90667757186711,6.000743039489194,13.985569098045799,0.0019081118885161108
ITLT,10,7,710,84.50704225352112,2,2,True,,,31.580629700998873,22.0,2565.6249999992724,-9.580629700998873,False,1,0,4,6,0,0,17.0,0.9149811558168224,46.03931256236699,42.90667757186711,-8.233032912445651,-19.188232178209613,0.005646962233066577
ITLT,10,6,843,71.17437722419929,1,2,True,,,19.194949373496982,0.0,2396.339999999327,-19.194949373496982,False,1,0,5,6,0,0,17.0,0.9149811558168224,46.03931256236699,42.90667757186711,-19.604465066038834,-45.690941772879235,0.048349166063394726
ITLT,10,5,390,153.84615384615384,4,0,True,,,74.79787473312055,100.0,2234.9500000018743,25.20212526687945,False,1,0,6,6,0,0,17.0,0.9149811558168224,46.03931256236699,42.90667757186711,32.680799124801936,76.16716318820724,0.0978382974048675
ITLT,10,3,843,71.17437722419929,1,1,True,,,19.194949373496982,16.0,1482.785000000149,-3.194949373496982,False,1,0,7,6,0,0,17.0,0.9149811558168224,46.03931256236699,42.90667757186711,-3.604465066038834,-8.400708864025857,0.0016552334166477294
ITLT,10,7,599,100.1669449081803,3,0,True,,,43.84378078116181,47.0,7906.685000001802,3.1562192188381886,False,1,0,8,6,0,0,17.0,0.9149811558168224,46.03931256236699,42.90667757186711,6.243545699321444,14.551454581547906,0.001786192885979514
ITLT,10,4,774,77.51937984496124,2,2,True,,,25.354902613380577,7.0,2427.015000001178,-18.354902613380577,False,1,0,9,6,0,0,17.0,0.9149811558168224,46.03931256236699,42.90667757186711,-17.890527616468102,-41.69637135502307,0.032094069385176116
ITLT,10,7,302,198.67549668874173,5,0,True,,,93.24415345434716,100.0,2943.1100000001024,6.755846545652844,False,1,0,10,6,0,0,17.0,0.9149811558168224,46.03931256236699,42.90667757186711,16.851428454952682,39.27460574575405,0.04671509357513142
ITLT,10,6,550,109.0909090909091,3,0,True,,,50.0,50.0,1235.6599999984028,0.0,False,1,0,11,6,0,0,17.0,0.9149811558168224,46.03931256236699,42.90667757186711,3.9606874376330126,9.230934814281545,0.0005640330266240139
ITLT,10,4,358,167.5977653631285,5,1,True,,,80.97360155738828,80.0,1751.465000001248,-0.9736015573882781,False,1,0,12,6,0,0,17.0,0.9149811558168224,46.03931256236699,42.90667757186711,7.381200732386219,17.20291840360508,0.004629703637838843
ITLT,10,3,652,92.02453987730061,2,0,True,,,37.727982709047225,21.0,1465.0299999993294,-16.727982709047225,False,1,0,13,6,0,0,17.0,0.9149811558168224,46.03931256236699,42.90667757186711,-14.508282781181208,-33.81357775110965,0.014123211701053321
ITLT,10,4,918,65.359477124183,1,1,True,,,13.046873249910696,8.0,3374.8799999994226,-5.046873249910696,False,1,0,14,6,0,0,17.0,0.9149811558168224,46.03931256236699,42.90667757186711,-6.328594667598605,-14.74967307127997,0.006170427375148818
ITLT,10,6,302,198.67549668874173,5,1,True,,,93.24415345434716,80.0,2529.5549999973737,-13.244153454347156,False,1,0,15,6,0,0,17.0,0.9149811558168224,46.03931256236699,42.90667757186711,-3.148571545047318,-7.338185390312677,0.004440055041012529
ITLT,10,4,599,100.1669449081803,3,0,True,,,43.84378078116181,58.0,5004.049999999523,14.156219218838189,False,1,0,16,6,0,0,17.0,0.9149811558168224,46.03931256236699,42.90667757186711,17.243545699321444,40.18848970638461,0.015318001739713885
ITLT,10,2,1000,60.0,1,0,True,,,6.875176187496734,0.0,1809.5150000008289,-6.875176187496734,False,1,0,17,6,0,0,17.0,0.9149811558168224,46.03931256236699,42.90667757186711,-9.032454349033898,-21.051395400878732,0.015507421539275456
ITLT,10,5,504,119.04761904761905,3,1,True,,,56.30039424560527,54.0,3533.0900000008405,-2.3003942456052684,False,1,0,18,6,0,0,17.0,0.9149811558168224,46.03931256236699,42.90667757186711,2.5541077481963725,5.952704550284361,0.0001693419560760207
ITLT,10,4,425,141.1764705882353,4,0,True,,,68.5984388693479,61.0,1777.9699999991572,-7.598438869347902,False,1,0,19,6,0,0,17.0,0.9149811558168224,46.03931256236699,42.90667757186711,-0.9992569605108059,-2.3289077995775536,0.0003283030725560625
ITLT,10,2,358,167.5977653631285,5,1,True,,,80.97360155738828,69.0,2495.8850000003004,-11.973601557388278,False,1,0,20,6,0,0,17.0,0.9149811558168224,46.03931256236699,42.90667757186711,-3.618799267613781,-8.43411672123162,0.0030508111815157
ITLT,10,5,843,71.17437722419929,1,2,True,,,19.194949373496982,15.0,2596.5649999998277,-4.194949373496982,False,1,0,21,6,0,0,17.0,0.9149811558168224,46.03931256236699,42.90667757186711,-4.604465066038834,-10.731348420829192,0.002692006768119558
ITLT,10,3,504,119.04761904761905,3,2,True,,,56.30039424560527,50.0,842.6849999996484,-6.300394245605268,False,1,0,22,6,0,0,17.0,0.9149811558168224,46.03931256236699,42.90667757186711,-1.4458922518036275,-3.369853676928984,0.0002764228382447159
ITLT,10,5,329,182.370820668693,5,2,True,,,87.06720173383901,83.0,2641.234999999113,-4.067201733839013,False,1,0,23,6,0,0,17.0,0.9149811558168224,46.03931256236699,42.90667757186711,5.15207797192933,12.007636721113606,0.002193849383965794
ITLT,10,2,710,84.50704225352112,2,2,True,,,31.580629700998873,41.0,4505.675000000338,9.419370299001127,False,1,0,24,6,0,0,17.0,0.9149811558168224,46.03931256236699,42.90667757186711,10.766967087554349,25.09391940105378,0.00855092665628275
ITLT,10,7,390,153.84615384615384,4,0,True,,,74.79787473312055,65.0,2523.7149999993853,-9.797874733120551,False,1,0,25,6,0,0,17.0,0.9149811558168224,46.03931256236699,42.90667757186711,-2.3192008751980637,-5.405221299909525,0.0012085352767403172
ITLT,10,3,329,182.370820668693,5,2,True,,,87.06720173383901,83.0,1822.3450000005541,-4.067201733839013,False,1,0,26,6,0,0,17.0,0.9149811558168224,46.03931256236699,42.90667757186711,5.15207797192933,12.007636721113606,0.002193849383965794
