subject,pitch,ioi,tempo,loudness,tap_condition,key_press,tap_times,true_score,response,rt,error,tapped,tap_type,block,trial,test_correct,test_incorrect,test_skipped,extreme_responses,pearsonr,intercept,slope,residual,cooks
2,7,302,5,2,True,"[74, 74, 74, 74, 74]","[341, 683, 907, 1157, 1403]",93.24415,86.0,4031.6400000010617,-7.244150000000005,True,2,0,1,6,0,0,18.0,0.934153993555676,48.989465613196316,39.72248949784459,2.6552257581339944,0.00013876931447520443
2,4,463,4,1,True,"[74, 74, 74, 74, 74]","[384, 864, 1211, 1584, 2005]",62.42097,71.0,4149.534999975003,8.579030000000003,True,2,0,2,6,0,0,18.0,0.934153993555676,48.989465613196316,39.72248949784459,12.142696380151285,0.011338841098762894
2,6,358,5,2,True,"[74, 74, 74, 74]","[320, 576, 869, 1243]",80.9736,85.0,2671.2899999693036,4.026399999999995,True,2,0,3,6,0,0,18.0,0.934153993555676,48.989465613196316,39.72248949784459,11.403563135328113,0.01818497522217038
2,3,599,3,0,True,"[74, 74, 74, 74]","[288, 917, 1451, 2085]",43.84378,29.0,2807.3800000129268,-14.843780000000002,True,2,0,4,6,0,0,18.0,0.934153993555676,48.989465613196316,39.72248949784459,-15.098658547861739,0.022511889784456195
2,4,358,5,1,True,"[74, 74, 74, 74]","[651, 939, 1136, 1397]",80.9736,80.0,2564.5450000301935,-0.9736000000000047,True,2,0,5,6,0,0,18.0,0.934153993555676,48.989465613196316,39.72248949784459,6.403563135328113,0.0042063135519457995
2,6,918,1,2,True,"[74, 74, 74]","[368, 651, 2197]",13.04687,7.0,2396.920000028331,-6.04687,True,2,0,6,6,0,0,18.0,0.934153993555676,48.989465613196316,39.72248949784459,-12.632061828337477,0.043225745741300114
2,5,358,5,0,True,"[74, 74, 74, 74]","[336, 832, 1179, 1552]",80.9736,93.0,3121.4200000395067,12.026399999999995,True,2,0,7,6,0,0,18.0,0.934153993555676,48.989465613196316,39.72248949784459,19.403563135328113,0.06093225965158945
2,6,390,4,1,True,"[74, 74, 74, 74]","[288, 715, 1019, 1408]",74.79787,65.0,2999.690000026021,-9.797870000000003,True,2,0,8,6,0,0,18.0,0.934153993555676,48.989465613196316,39.72248949784459,-3.6901319863012674,0.0044062154755498155
2,3,774,2,0,True,"[74, 74, 74]","[549, 1877, 2731]",25.3549,19.0,2457.2799999732524,-6.354900000000001,True,2,0,9,6,0,0,18.0,0.934153993555676,48.989465613196316,39.72248949784459,-10.410173170929372,0.019271251250041053
2,5,463,4,1,True,"[74, 74, 74, 74]","[421, 800, 1147, 1568]",62.42097,75.0,2576.7699999851175,12.579030000000003,True,2,0,10,6,0,0,18.0,0.934153993555676,48.989465613196316,39.72248949784459,16.142696380151285,0.0214001029221541
2,2,843,1,1,True,"[74, 74, 74]","[283, 805, 1957]",19.19495,21.0,2122.8050000499934,1.8050500000000014,True,2,0,11,6,0,0,18.0,0.934153993555676,48.989465613196316,39.72248949784459,-3.5163996133595745,0.003439413704859035
2,3,390,4,2,True,"[74, 74, 74, 74]","[331, 752, 1040, 1397]",74.79787,67.0,2716.599999985192,-7.797870000000003,True,2,0,12,6,0,0,18.0,0.934153993555676,48.989465613196316,39.72248949784459,-1.6901319863012674,0.0017281355663948026
2,5,1000,1,0,True,"[74, 74, 74]","[363, 747, 2229]",6.87518,28.0,2079.0999999735504,21.12482,True,2,0,13,6,0,0,18.0,0.934153993555676,48.989465613196316,39.72248949784459,13.271041606574858,0.051248491602221294
2,2,774,2,0,True,"[74, 74, 74]","[395, 1397, 2181]",25.3549,34.0,9287.21499996027,8.6451,True,2,0,14,6,0,0,18.0,0.934153993555676,48.989465613196316,39.72248949784459,4.589826829070628,0.002226443569351398
2,3,918,1,0,True,"[74, 74]","[373, 1291]",13.04687,29.0,2084.3800000147894,15.95313,True,2,0,15,6,0,0,18.0,0.934153993555676,48.989465613196316,39.72248949784459,9.367938171662523,0.019221915074767653
2,5,710,2,0,True,"[74, 74, 74, 74, 74]","[235, 891, 1717, 2400, 3024]",31.58063,36.0,5267.005000030622,4.419370000000001,True,2,0,16,6,0,0,18.0,0.934153993555676,48.989465613196316,39.72248949784459,1.6437992519833386,6.807988446027021e-05
2,7,463,4,0,True,"[74, 74, 74, 74]","[331, 763, 1184, 1669]",62.42097,50.0,1399.0799999446608,-12.420969999999997,True,2,0,17,6,0,0,18.0,0.934153993555676,48.989465613196316,39.72248949784459,-8.857303619848715,0.010503312518485327
2,2,599,3,1,True,"[74, 74, 74, 74]","[5, 821, 1397, 1904]",43.84378,45.0,2786.695000017062,1.1562199999999976,True,2,0,18,6,0,0,18.0,0.934153993555676,48.989465613196316,39.72248949784459,0.9013414521382614,3.818074624220241e-06
2,7,652,2,1,True,"[74, 74, 74, 74, 74]","[251, 848, 1525, 2149, 2747]",37.72798,47.0,3558.1549999769777,9.272019999999998,True,2,0,19,6,0,0,18.0,0.934153993555676,48.989465613196316,39.72248949784459,7.7600359459484665,0.004518070266494506
2,2,463,4,0,True,"[74, 74, 74, 74, 74]","[304, 773, 1120, 1552, 1952]",62.42097,56.0,2505.2750000031665,-6.420969999999997,True,2,0,20,6,0,0,18.0,0.934153993555676,48.989465613196316,39.72248949784459,-2.8573036198487145,0.00183013279984585
2,6,550,3,1,True,"[74, 74, 74, 74]","[341, 747, 1317, 1845]",50.0,50.0,2080.169999971986,0.0,True,2,0,21,6,0,0,18.0,0.934153993555676,48.989465613196316,39.72248949784459,1.010534386803684,3.6144560473582757e-06
2,7,1000,1,1,True,"[74, 74, 74, 74, 74]","[309, 661, 1392, 2251, 3275]",6.87518,28.0,2127.919999998994,21.12482,True,2,0,22,6,0,0,18.0,0.934153993555676,48.989465613196316,39.72248949784459,13.271041606574858,0.051248491602221294
2,4,774,2,1,True,"[74, 74, 74, 74]","[352, 869, 1947, 2715]",25.3549,33.0,2526.025000028312,7.645099999999999,True,2,0,23,6,0,0,18.0,0.934153993555676,48.989465613196316,39.72248949784459,3.5898268290706277,0.0012099820209440445
2,7,599,3,0,True,"[74, 74, 74, 74]","[299, 987, 1397, 2016]",43.84378,50.0,976.4350000186823,6.156219999999998,True,2,0,24,6,0,0,18.0,0.934153993555676,48.989465613196316,39.72248949784459,5.9013414521382614,0.00196450815787223
2,6,652,2,2,True,"[74, 74, 74, 74]","[240, 757, 1467, 2165]",37.72798,50.0,2776.9049999769777,12.272019999999998,True,2,0,25,6,0,0,18.0,0.934153993555676,48.989465613196316,39.72248949784459,10.760035945948466,0.009421444784589525
2,4,550,3,2,True,"[74, 74, 74, 74, 74]","[272, 880, 1365, 1856, 2379]",50.0,50.0,1086.684999987483,0.0,True,2,0,26,6,0,0,18.0,0.934153993555676,48.989465613196316,39.72248949784459,1.010534386803684,3.6144560473582757e-06
2,2,358,5,0,True,"[74, 74, 74]","[363, 757, 1456]",80.9736,62.0,2597.7399999974295,-18.973600000000005,True,2,0,27,6,0,0,18.0,0.934153993555676,48.989465613196316,39.72248949784459,-11.596436864671887,0.03501688407204827
2,4,1000,1,2,True,"[74, 74]","[187, 672]",6.87518,26.0,2097.3349999985658,19.12482,True,2,0,28,6,0,0,18.0,0.934153993555676,48.989465613196316,39.72248949784459,11.271041606574858,0.03649923720571399
2,3,329,5,2,True,"[74, 74]","[165, 704]",87.0672,69.0,2256.935000012163,-18.0672,True,2,0,29,6,0,0,18.0,0.934153993555676,48.989465613196316,39.72248949784459,-9.437496244934465,0.03174789662823424
2,5,599,3,0,True,"[74, 74, 74, 74]","[48, 613, 1269, 1877]",43.84378,50.0,464.50499998172745,6.156219999999998,True,2,0,30,6,0,0,18.0,0.934153993555676,48.989465613196316,39.72248949784459,5.9013414521382614,0.00196450815787223
2,7,358,5,0,True,"[74, 74, 74]","[240, 677, 1008]",80.9736,61.0,2584.310000005644,-19.973600000000005,True,2,1,31,6,0,0,18.0,0.934153993555676,48.989465613196316,39.72248949784459,-12.596436864671887,0.040452112139892867
2,2,390,4,2,True,,,74.79787,63.0,2852.3799999966286,-11.797870000000003,False,1,1,32,6,0,0,18.0,0.934153993555676,48.989465613196316,39.72248949784459,-5.690131986301267,0.00831521676666176
2,4,652,2,0,True,,,37.72798,35.0,3074.6799999615178,-2.7279800000000023,False,1,1,33,6,0,0,18.0,0.934153993555676,48.989465613196316,39.72248949784459,-4.2399640540515335,0.002722079082234314
2,2,329,5,2,True,,,87.0672,79.0,2800.0400000019,-8.0672,False,1,1,34,6,0,0,18.0,0.934153993555676,48.989465613196316,39.72248949784459,0.562503755065535,0.00042950280732850327
2,3,425,4,1,True,,,68.59844,67.0,2895.6149999867193,-1.5984399999999965,False,1,1,35,6,0,0,18.0,0.934153993555676,48.989465613196316,39.72248949784459,3.2350085335241516,0.00034479023804019225
2,5,843,1,1,True,,,19.19495,24.0,2181.7300000111572,4.805050000000001,False,1,1,36,6,0,0,18.0,0.934153993555676,48.989465613196316,39.72248949784459,-0.5163996133595745,0.00027805937064141257
2,6,463,4,0,True,,,62.42097,50.0,1563.4350000182167,-12.420969999999997,False,1,1,37,6,0,0,18.0,0.934153993555676,48.989465613196316,39.72248949784459,-8.857303619848715,0.010503312518485327
2,2,1000,1,0,True,,,6.87518,24.0,1864.4600000116043,17.12482,False,1,1,38,6,0,0,18.0,0.934153993555676,48.989465613196316,39.72248949784459,9.271041606574858,0.024246903949209187
2,4,390,4,0,True,,,74.79787,63.0,2682.5499999686144,-11.797870000000003,False,1,1,39,6,0,0,18.0,0.934153993555676,48.989465613196316,39.72248949784459,-5.690131986301267,0.00831521676666176
2,3,1000,1,1,True,,,6.87518,19.0,2225.1149999792688,12.12482,False,1,1,40,6,0,0,18.0,0.934153993555676,48.989465613196316,39.72248949784459,4.271041606574858,0.004540100795457941
2,2,710,2,1,True,,,31.58063,42.0,5242.440000001807,10.41937,False,1,1,41,6,0,0,18.0,0.934153993555676,48.989465613196316,39.72248949784459,7.643799251983339,0.005531022929582771
2,6,302,5,0,True,,,93.24415,74.0,2613.8999999966472,-19.244150000000005,False,1,1,42,6,0,0,18.0,0.934153993555676,48.989465613196316,39.72248949784459,-9.344774241866006,0.040061450539430714
2,3,504,3,1,True,,,56.30039,50.0,574.289999960456,-6.30039,False,1,1,43,6,0,0,18.0,0.934153993555676,48.989465613196316,39.72248949784459,-3.9948124982630304,0.00243211775284044
2,4,918,1,1,True,,,13.04687,27.0,2386.0449999920093,13.95313,False,1,1,44,6,0,0,18.0,0.934153993555676,48.989465613196316,39.72248949784459,7.367938171662523,0.0114786521506056
2,3,710,2,1,True,,,31.58063,30.0,3368.6649999581277,-1.5806299999999993,False,1,1,45,6,0,0,18.0,0.934153993555676,48.989465613196316,39.72248949784459,-4.356200748016661,0.003348791096625187
2,5,550,3,2,True,,,50.0,50.0,602.7600000379607,0.0,False,1,1,46,6,0,0,18.0,0.934153993555676,48.989465613196316,39.72248949784459,1.010534386803684,3.6144560473582757e-06
2,7,710,2,2,True,,,31.58063,44.0,2187.5399999553338,12.41937,False,1,1,47,6,0,0,18.0,0.934153993555676,48.989465613196316,39.72248949784459,9.643799251983339,0.009295038224020806
2,6,843,1,1,True,,,19.19495,32.0,2064.364999998361,12.805050000000001,False,1,1,48,6,0,0,18.0,0.934153993555676,48.989465613196316,39.72248949784459,7.4836003866404255,0.009072301098755117
2,2,504,3,0,True,,,56.30039,50.0,485.3199999779463,-6.30039,False,1,1,49,6,0,0,18.0,0.934153993555676,48.989465613196316,39.72248949784459,-3.9948124982630304,0.00243211775284044
2,6,710,2,0,True,,,31.58063,29.0,1660.3549999999814,-2.5806299999999993,False,1,1,50,6,0,0,18.0,0.934153993555676,48.989465613196316,39.72248949784459,-5.356200748016661,0.004745653795888949
2,7,504,3,1,True,,,56.30039,50.0,740.3700000140816,-6.30039,False,1,1,51,6,0,0,18.0,0.934153993555676,48.989465613196316,39.72248949784459,-3.9948124982630304,0.00243211775284044
2,3,358,5,0,True,,,80.9736,82.0,2053.0000000144355,1.0263999999999953,False,1,1,52,6,0,0,18.0,0.934153993555676,48.989465613196316,39.72248949784459,8.403563135328113,0.008621926734051415
2,4,504,3,0,True,,,56.30039,50.0,363.1300000124611,-6.30039,False,1,1,53,6,0,0,18.0,0.934153993555676,48.989465613196316,39.72248949784459,-3.9948124982630304,0.00243211775284044
2,5,329,5,1,True,,,87.0672,78.0,2816.7199999443255,-9.0672,False,1,1,54,6,0,0,18.0,0.934153993555676,48.989465613196316,39.72248949784459,-0.43749624493446504,0.0013300568158385515
2,6,599,3,0,True,,,43.84378,50.0,875.0399999553338,6.156219999999998,False,1,1,55,6,0,0,18.0,0.934153993555676,48.989465613196316,39.72248949784459,5.9013414521382614,0.00196450815787223
2,4,329,5,0,True,,,87.0672,73.0,1627.7899999986403,-14.0672,False,1,1,56,6,0,0,18.0,0.934153993555676,48.989465613196316,39.72248949784459,-5.437496244934465,0.01327044477032388
2,5,390,4,2,True,,,74.79787,72.0,1829.410000005737,-2.797870000000003,False,1,1,57,6,0,0,18.0,0.934153993555676,48.989465613196316,39.72248949784459,3.3098680136987326,0.0004182168395688468
2,7,918,1,0,True,,,13.04687,13.0,2482.959999993909,-0.04687000000000019,False,1,1,58,6,0,0,18.0,0.934153993555676,48.989465613196316,39.72248949784459,-6.632061828337477,0.012858216032467978
2,5,652,2,1,True,,,37.72798,37.0,2289.74500001641,-0.7279800000000023,False,1,1,59,6,0,0,18.0,0.934153993555676,48.989465613196316,39.72248949784459,-2.2399640540515335,0.0010416879587088043
2,7,425,4,2,True,,,68.59844,66.0,1717.8249999997206,-2.5984399999999965,False,1,1,60,6,0,0,18.0,0.934153993555676,48.989465613196316,39.72248949784459,2.2350085335241516,5.685353861837107e-05
2,2,918,1,2,True,,,13.04687,16.0,1526.3300000224262,2.95313,False,1,2,61,6,0,0,18.0,0.934153993555676,48.989465613196316,39.72248949784459,-3.632061828337477,0.004374115988216695
2,3,463,4,0,True,,,62.42097,58.0,2119.025000021793,-4.420969999999997,False,1,2,62,6,0,0,18.0,0.934153993555676,48.989465613196316,39.72248949784459,-0.8573036198487145,0.000523411057214444
2,5,774,2,2,True,,,25.3549,32.0,1301.7450000043027,6.645099999999999,False,1,2,63,6,0,0,18.0,0.934153993555676,48.989465613196316,39.72248949784459,2.5898268290706277,0.0005010607668871678
2,2,425,4,1,True,,,68.59844,72.0,2213.820000004489,3.4015600000000035,False,1,2,64,6,0,0,18.0,0.934153993555676,48.989465613196316,39.72248949784459,8.235008533524152,0.005433241671112279
2,6,1000,1,0,True,,,6.87518,5.0,1385.0200000451878,-1.8751800000000003,False,1,2,65,6,0,0,18.0,0.934153993555676,48.989465613196316,39.72248949784459,-9.728958393425142,0.03238367987003666
2,2,652,2,2,True,,,37.72798,32.0,1530.9899999992922,-5.727980000000002,False,1,2,66,6,0,0,18.0,0.934153993555676,48.989465613196316,39.72248949784459,-7.2399640540515335,0.006727458008199234
2,6,504,3,2,True,,,56.30039,50.0,316.9050000142306,-6.30039,False,1,2,67,6,0,0,18.0,0.934153993555676,48.989465613196316,39.72248949784459,-3.9948124982630304,0.00243211775284044
2,3,843,1,2,True,,,19.19495,23.0,1546.7700000153854,3.8050500000000014,False,1,2,68,6,0,0,18.0,0.934153993555676,48.989465613196316,39.72248949784459,-1.5163996133595745,0.0009403777861527253
2,6,425,4,2,True,,,68.59844,85.0,6645.9000000031665,16.401560000000003,False,1,2,69,6,0,0,18.0,0.934153993555676,48.989465613196316,39.72248949784459,21.23500853352415,0.047123605297610935
2,7,774,2,0,True,,,25.3549,24.0,1756.6500000539236,-1.3549000000000007,False,1,2,70,6,0,0,18.0,0.934153993555676,48.989465613196316,39.72248949784459,-5.410173170929372,0.0059011413310492734
2,6,329,5,1,True,,,87.0672,97.0,2046.5650000260212,9.9328,False,1,2,71,6,0,0,18.0,0.934153993555676,48.989465613196316,39.72248949784459,18.562503755065535,0.0690083748502076
2,7,843,1,2,True,,,19.19495,32.0,1391.5549999801442,12.805050000000001,False,1,2,72,6,0,0,18.0,0.934153993555676,48.989465613196316,39.72248949784459,7.4836003866404255,0.009072301098755117
2,2,550,3,2,True,,,50.0,50.0,311.47000001510605,0.0,False,1,2,73,6,0,0,18.0,0.934153993555676,48.989465613196316,39.72248949784459,1.010534386803684,3.6144560473582757e-06
2,7,329,5,1,True,,,87.0672,89.0,2136.2450000015087,1.9328000000000003,False,1,2,74,6,0,0,18.0,0.934153993555676,48.989465613196316,39.72248949784459,10.562503755065535,0.01869522839932333
2,5,425,4,0,True,,,68.59844,56.0,2480.4399999557063,-12.598439999999997,False,1,2,75,6,0,0,18.0,0.934153993555676,48.989465613196316,39.72248949784459,-7.764991466475848,0.010556302309597754
2,3,550,3,2,True,,,50.0,50.0,375.54999999701977,0.0,False,1,2,76,6,0,0,18.0,0.934153993555676,48.989465613196316,39.72248949784459,1.010534386803684,3.6144560473582757e-06
2,5,918,1,2,True,,,13.04687,22.0,1301.1249999981374,8.95313,False,1,2,77,6,0,0,18.0,0.934153993555676,48.989465613196316,39.72248949784459,2.367938171662523,0.000805245520043707
2,4,599,3,1,True,,,43.84378,38.0,4495.969999989029,-5.843780000000002,False,1,2,78,6,0,0,18.0,0.934153993555676,48.989465613196316,39.72248949784459,-6.0986585478617386,0.004454421952133407
2,5,302,5,2,True,,,93.24415,97.0,1837.9800000111572,3.7558499999999952,False,1,2,79,6,0,0,18.0,0.934153993555676,48.989465613196316,39.72248949784459,13.655225758133994,0.042457637359493025
2,7,390,4,1,True,,,74.79787,93.0,1861.6599999950267,18.202129999999997,False,1,2,80,6,0,0,18.0,0.934153993555676,48.989465613196316,39.72248949784459,24.309868013698733,0.07892694250546048
2,5,504,3,1,True,,,56.30039,50.0,349.31499999947846,-6.30039,False,1,2,81,6,0,0,18.0,0.934153993555676,48.989465613196316,39.72248949784459,-3.9948124982630304,0.00243211775284044
2,4,302,5,2,True,,,93.24415,86.0,1640.1499999919906,-7.244150000000005,False,1,2,82,6,0,0,18.0,0.934153993555676,48.989465613196316,39.72248949784459,2.6552257581339944,0.00013876931447520433
2,7,550,3,2,True,,,50.0,50.0,65.89999998686835,0.0,False,1,2,83,6,0,0,18.0,0.934153993555676,48.989465613196316,39.72248949784459,1.010534386803684,3.6144560473582757e-06
2,3,302,5,1,True,,,93.24415,89.0,1470.0050000101328,-4.244150000000005,False,1,2,84,6,0,0,18.0,0.934153993555676,48.989465613196316,39.72248949784459,5.655225758133994,0.004194303208059319
2,4,843,1,0,True,,,19.19495,13.0,1156.6200000233948,-6.194949999999999,False,1,2,85,6,0,0,18.0,0.934153993555676,48.989465613196316,39.72248949784459,-11.516399613359575,0.02909421188213339
2,6,774,2,1,True,,,25.3549,34.0,2520.5300000379793,8.6451,False,1,2,86,6,0,0,18.0,0.934153993555676,48.989465613196316,39.72248949784459,4.589826829070628,0.002226443569351398
2,4,425,4,2,True,,,68.59844,69.0,2310.529999958817,0.40156000000000347,False,1,2,87,6,0,0,18.0,0.934153993555676,48.989465613196316,39.72248949784459,5.235008533524152,0.001650417224076431
2,3,652,2,2,True,,,37.72798,27.0,1957.2749999933876,-10.727980000000002,False,1,2,88,6,0,0,18.0,0.934153993555676,48.989465613196316,39.72248949784459,-12.239964054051534,0.017362535526611857
2,2,302,5,1,True,,,93.24415,83.0,2509.805000037886,-10.244150000000005,False,1,2,89,6,0,0,18.0,0.934153993555676,48.989465613196316,39.72248949784459,-0.3447742418660056,0.0016977171008202862
2,4,710,2,2,True,,,31.58063,27.0,1691.484999959357,-4.580629999999999,False,1,2,90,6,0,0,18.0,0.934153993555676,48.989465613196316,39.72248949784459,-7.356200748016661,0.008268017049190425
3,2,358,5,1,True,"[74, 74, 74]","[43, 597, 1168]",80.9736,71.0,5319.939999841154,-9.973600000000005,True,2,0,1,6,0,0,19.0,0.9574962786741719,52.354007835092645,47.93101676410119,-11.045932144928017,0.027315435566773627
3,5,652,2,1,True,"[74, 74, 74, 74, 74]","[64, 651, 1280, 1893, 2512]",37.72798,37.0,2735.3900000452995,-0.7279800000000023,True,2,0,2,6,0,0,19.0,0.9574962786741719,52.354007835092645,47.93101676410119,-3.5898025050527025,0.0012739386679313312
3,4,918,1,1,True,"[74, 74, 74, 74, 74]","[69, 667, 1280, 1925, 2544]",13.04687,24.0,4724.260000046343,10.95313,True,2,0,3,6,0,0,19.0,0.9574962786741719,52.354007835092645,47.93101676410119,7.070010919797074,0.01566276074088261
3,2,710,2,2,True,"[74, 74, 74, 74]","[592, 1189, 1808, 2437]",31.58063,30.0,7342.699999921024,-1.5806299999999993,True,2,0,4,6,0,0,19.0,0.9574962786741719,52.354007835092645,47.93101676410119,-4.696824903380438,0.002721676042109281
3,5,1000,1,2,True,"[74, 74, 74, 74, 74]","[75, 656, 1312, 1963, 2523]",6.87518,0.0,3972.529999911785,-6.87518,True,2,0,5,6,0,0,19.0,0.9574962786741719,52.354007835092645,47.93101676410119,-11.013674772972578,0.040120895422338515
3,6,774,2,0,True,"[74, 74, 74, 74]","[592, 1131, 1765, 2373]",25.3549,25.0,7432.52500006929,-0.35490000000000066,True,2,0,6,6,0,0,19.0,0.9574962786741719,52.354007835092645,47.93101676410119,-3.728716315273406,0.002063703835708696
3,7,504,3,0,True,"[74, 74, 74, 74]","[64, 656, 1227, 1819]",56.30039,56.0,3813.0349996499717,-0.30039000000000016,True,2,0,7,6,0,0,19.0,0.9574962786741719,52.354007835092645,47.93101676410119,-2.3936938792236973,0.0005010588557058393
3,3,710,2,2,True,"[74, 74, 74, 74, 74]","[123, 709, 1333, 1920, 2656]",31.58063,45.0,3363.79999993369,13.41937,True,2,0,8,6,0,0,19.0,0.9574962786741719,52.354007835092645,47.93101676410119,10.303175096619562,0.015480330687274819
3,4,425,4,1,True,"[74, 74, 74, 74]","[101, 667, 1205, 1787]",68.59844,67.0,3623.2849997468293,-1.5984399999999965,True,2,0,9,6,0,0,19.0,0.9574962786741719,52.354007835092645,47.93101676410119,-3.1828495397491423,0.001351474622198873
3,6,358,5,1,True,"[74, 74, 74]","[75, 651, 1211]",80.9736,89.0,3233.8200001977384,8.026399999999995,True,2,0,10,6,0,0,19.0,0.9574962786741719,52.354007835092645,47.93101676410119,6.954067855071983,0.010799599240316725
3,3,463,4,0,True,"[74, 74, 74, 74]","[69, 645, 1200, 1803]",62.42097,60.0,4268.135000020266,-2.420969999999997,True,2,0,11,6,0,0,19.0,0.9574962786741719,52.354007835092645,47.93101676410119,-4.2610034665712675,0.001960038155791423
3,4,652,2,1,True,"[74, 74, 74, 74]","[75, 677, 1312, 1952]",37.72798,48.0,5954.20499984175,10.272019999999998,True,2,0,12,6,0,0,19.0,0.9574962786741719,52.354007835092645,47.93101676410119,7.4101974949472975,0.006597281226372786
3,3,504,3,0,True,"[74, 74, 74, 74]","[133, 693, 1264, 1883]",56.30039,53.0,4894.439999945462,-3.30039,True,2,0,13,6,0,0,19.0,0.9574962786741719,52.354007835092645,47.93101676410119,-5.393693879223697,0.002709066014447128
3,6,463,4,0,True,"[74, 74, 74, 74]","[133, 731, 1280, 1787]",62.42097,60.0,3357.8250003047287,-2.420969999999997,True,2,0,14,6,0,0,19.0,0.9574962786741719,52.354007835092645,47.93101676410119,-4.2610034665712675,0.001960038155791423
3,2,504,3,0,True,"[74, 74, 74, 74]","[91, 683, 1227, 1808]",56.30039,50.0,1405.6249996647239,-6.30039,True,2,0,15,6,0,0,19.0,0.9574962786741719,52.354007835092645,47.93101676410119,-8.393693879223697,0.006677019889474636
3,7,918,1,0,True,"[74, 74, 74, 74, 74, 74]","[64, 635, 1280, 1952, 2507, 3056]",13.04687,7.0,3030.555000063032,-6.04687,True,2,0,16,6,0,0,19.0,0.9574962786741719,52.354007835092645,47.93101676410119,-9.929989080202926,0.025898128093254532
3,6,599,3,1,True,"[74, 74, 74, 74, 74]","[80, 688, 1285, 1899, 2533]",43.84378,50.0,4390.98499994725,6.156219999999998,True,2,0,17,6,0,0,19.0,0.9574962786741719,52.354007835092645,47.93101676410119,3.5474690965396576,0.0013716090708796296
3,5,302,5,2,True,"[74, 74, 74]","[69, 640, 1205]",93.24415,100.0,3849.3349999189377,6.755849999999995,True,2,0,18,6,0,0,19.0,0.9574962786741719,52.354007835092645,47.93101676410119,6.191267281513802,0.013327555885411657
3,6,1000,1,0,True,"[74, 74, 74, 74, 74, 74]","[112, 677, 1323, 1931, 2480, 3040]",6.87518,3.0,4908.245000056922,-3.8751800000000003,True,2,0,19,6,0,0,19.0,0.9574962786741719,52.354007835092645,47.93101676410119,-8.013674772972578,0.020644423269058403
3,7,710,2,0,True,"[74, 74, 74, 74, 74]","[101, 715, 1381, 1995, 2613]",31.58063,43.0,3447.374999988824,11.41937,True,2,0,20,6,0,0,19.0,0.9574962786741719,52.354007835092645,47.93101676410119,8.303175096619562,0.010175702832142374
3,3,302,5,0,True,"[74, 74, 74]","[64, 661, 1184]",93.24415,100.0,2384.4450004398823,6.755849999999995,True,2,0,21,6,0,0,19.0,0.9574962786741719,52.354007835092645,47.93101676410119,6.191267281513802,0.013327555885411657
3,4,550,3,1,True,"[74, 74, 74, 74, 74]","[160, 752, 1317, 1813, 2368]",50.0,50.0,10280.259999912232,0.0,True,2,0,22,6,0,0,19.0,0.9574962786741719,52.354007835092645,47.93101676410119,-2.354007835092645,0.0004439306658018865
3,7,302,5,0,True,"[74, 74, 74]","[101, 699, 1291]",93.24415,100.0,2133.994999807328,6.755849999999995,True,2,0,23,6,0,0,19.0,0.9574962786741719,52.354007835092645,47.93101676410119,6.191267281513802,0.013327555885411657
3,5,463,4,2,True,"[74, 74, 74, 74]","[32, 608, 1189, 1723]",62.42097,62.0,5242.839999962598,-0.42096999999999696,True,2,0,24,6,0,0,19.0,0.9574962786741719,52.354007835092645,47.93101676410119,-2.2610034665712675,0.0005295116720549859
3,3,843,1,2,True,"[74, 74, 74, 74, 74, 74]","[32, 587, 1163, 1755, 2320, 2864]",19.19495,26.0,4986.595000140369,6.805050000000001,True,2,0,25,6,0,0,19.0,0.9574962786741719,52.354007835092645,47.93101676410119,3.176340124865394,0.002751491122643215
3,5,504,3,1,True,"[74, 74, 74]","[549, 1141, 1717]",56.30039,50.0,11841.179999988526,-6.30039,True,2,0,26,6,0,0,19.0,0.9574962786741719,52.354007835092645,47.93101676410119,-8.393693879223697,0.006677019889474636
3,7,425,4,0,True,"[74, 74, 74, 74]","[59, 619, 1184, 1771]",68.59844,79.0,3835.079999640584,10.401560000000003,True,2,0,27,6,0,0,19.0,0.9574962786741719,52.354007835092645,47.93101676410119,8.817150460250858,0.010944809237458119
3,2,1000,1,1,True,"[74, 74, 74, 74, 74, 74, 74]","[112, 683, 1259, 1883, 2400, 2981, 3488]",6.87518,3.0,3178.209999576211,-3.8751800000000003,True,2,0,28,6,0,0,19.0,0.9574962786741719,52.354007835092645,47.93101676410119,-8.013674772972578,0.020644423269058403
3,4,358,5,2,True,"[74, 74, 74]","[59, 629, 1104]",80.9736,88.0,5700.140000320971,7.026399999999995,True,2,0,29,6,0,0,19.0,0.9574962786741719,52.354007835092645,47.93101676410119,5.954067855071983,0.007914921722839334
3,2,425,4,1,True,"[74, 74, 74]","[560, 1120, 1707]",68.59844,60.0,4214.764999691397,-8.598439999999997,True,2,0,30,6,0,0,19.0,0.9574962786741719,52.354007835092645,47.93101676410119,-10.182849539749142,0.014216743638622756
3,5,390,4,0,True,"[74, 74, 74]","[101, 672, 1227]",74.79787,77.0,3756.099999882281,2.202129999999997,True,2,1,31,6,0,0,19.0,0.9574962786741719,52.354007835092645,47.93101676410119,0.8742451739616968,0.00014312771403932542
3,2,918,1,0,True,"[74, 74, 74, 74, 74, 74]","[101, 635, 1205, 1813, 2299, 2853]",13.04687,6.0,4100.085000041872,-7.04687,True,2,1,32,6,0,0,19.0,0.9574962786741719,52.354007835092645,47.93101676410119,-10.929989080202926,0.03159761620974534
3,5,329,5,1,True,"[74, 74, 74]","[53, 624, 1141]",87.0672,97.0,3049.4949999265373,9.9328,True,2,1,33,6,0,0,19.0,0.9574962786741719,52.354007835092645,47.93101676410119,9.112618810848176,0.023296635483731076
3,3,774,2,1,True,"[74, 74, 74, 74, 74, 74]","[91, 645, 1221, 1771, 2331, 2891]",25.3549,30.0,2340.224999934435,4.645099999999999,True,2,1,34,6,0,0,19.0,0.9574962786741719,52.354007835092645,47.93101676410119,1.271283684726594,0.0004330087348873467
3,7,599,3,1,True,"[74, 74, 74, 74, 74]","[69, 635, 1248, 1856, 2432]",43.84378,46.0,2209.369999822229,2.1562199999999976,True,2,1,35,6,0,0,19.0,0.9574962786741719,52.354007835092645,47.93101676410119,-0.4525309034603424,6.324122233137272e-06
3,3,390,4,1,True,"[74, 74, 74, 74]","[11, 587, 1099, 1664]",74.79787,64.0,2500.725000165403,-10.797870000000003,True,2,1,36,6,0,0,19.0,0.9574962786741719,52.354007835092645,47.93101676410119,-12.125754826038303,0.025697841838573206
3,7,774,2,2,True,"[74, 74, 74, 74, 74]","[171, 757, 1360, 1979, 2480]",25.3549,21.0,3433.445000089705,-4.354900000000001,True,2,1,37,6,0,0,19.0,0.9574962786741719,52.354007835092645,47.93101676410119,-7.728716315273406,0.009686004789801032
3,3,329,5,2,True,"[74, 74, 74]","[85, 640, 1157]",87.0672,84.0,2855.8000000193715,-3.0671999999999997,True,2,1,38,6,0,0,19.0,0.9574962786741719,52.354007835092645,47.93101676410119,-3.8873811891518244,0.00436125189736921
3,7,1000,1,1,True,"[74, 74, 74, 74, 74, 74, 74]","[85, 651, 1179, 1717, 2288, 2853, 3339]",6.87518,11.0,2517.390000168234,4.12482,True,2,1,39,6,0,0,19.0,0.9574962786741719,52.354007835092645,47.93101676410119,-0.013674772972578353,5.3376062371371616e-05
3,2,774,2,0,True,"[74, 74, 74, 74, 74, 74]","[21, 603, 1131, 1701, 2240, 2837]",25.3549,21.0,3328.940000385046,-4.354900000000001,True,2,1,40,6,0,0,19.0,0.9574962786741719,52.354007835092645,47.93101676410119,-7.728716315273406,0.009686004789801032
3,5,843,1,1,True,"[74, 74, 74, 74, 74, 74]","[603, 1115, 1696, 2219, 2747, 3323]",19.19495,13.0,11336.604999843985,-6.194949999999999,True,2,1,41,6,0,0,19.0,0.9574962786741719,52.354007835092645,47.93101676410119,-9.823659875134606,0.02011966396232937
3,4,599,3,0,True,"[74, 74, 74, 74, 74]","[27, 608, 1083, 1680, 2299]",43.84378,58.0,4038.044999819249,14.156219999999998,True,2,1,42,6,0,0,19.0,0.9574962786741719,52.354007835092645,47.93101676410119,11.547469096539658,0.013487404259563756
3,2,390,4,0,True,"[74, 74, 74, 74]","[27, 603, 1088, 1675]",74.79787,63.0,2677.085000090301,-11.797870000000003,True,2,1,43,6,0,0,19.0,0.9574962786741719,52.354007835092645,47.93101676410119,-13.125754826038303,0.03012200815771254
3,6,710,2,1,True,"[74, 74, 74, 74, 74, 74]","[48, 619, 1200, 1861, 2336, 2757]",31.58063,40.0,5028.2100001350045,8.41937,True,2,1,44,6,0,0,19.0,0.9574962786741719,52.354007835092645,47.93101676410119,5.303175096619562,0.0042976883008535366
3,4,843,1,2,True,"[74, 74, 74, 74, 74]","[565, 1093, 1643, 2197, 2752]",19.19495,36.0,2833.4850003011525,16.80505,True,2,1,45,6,0,0,19.0,0.9574962786741719,52.354007835092645,47.93101676410119,13.176340124865394,0.04076967162764902
3,2,599,3,1,True,"[74, 74, 74, 74, 74]","[27, 539, 1040, 1680, 2240]",43.84378,49.0,3273.645000066608,5.156219999999998,True,2,1,46,6,0,0,19.0,0.9574962786741719,52.354007835092645,47.93101676410119,2.5474690965396576,0.0007369995433620333
3,4,774,2,2,True,"[74, 74, 74, 74, 74, 74, 74]","[27, 613, 1141, 1659, 2219, 2795, 3275]",25.3549,31.0,2803.5300001502037,5.645099999999999,True,2,1,47,6,0,0,19.0,0.9574962786741719,52.354007835092645,47.93101676410119,2.271283684726594,0.001159827193628953
3,7,329,5,1,True,"[74, 74, 74]","[48, 613, 1088]",87.0672,96.0,2650.599999818951,8.9328,True,2,1,48,6,0,0,19.0,0.9574962786741719,52.354007835092645,47.93101676410119,8.112618810848176,0.018444742068453562
3,5,550,3,2,True,"[74, 74, 74, 74, 74]","[69, 661, 1211, 1803, 2331]",50.0,50.0,830.3950000554323,0.0,True,2,1,49,6,0,0,19.0,0.9574962786741719,52.354007835092645,47.93101676410119,-2.354007835092645,0.0004439306658018865
3,4,302,5,0,True,"[74, 74, 74]","[80, 683, 1269]",93.24415,89.0,3619.3749997764826,-4.244150000000005,True,2,1,50,6,0,0,19.0,0.9574962786741719,52.354007835092645,47.93101676410119,-4.808732718486198,0.008481767182429477
3,6,390,4,2,True,"[74, 74, 74, 74]","[43, 603, 1147, 1637]",74.79787,82.0,4314.979999791831,7.202129999999997,True,2,1,51,6,0,0,19.0,0.9574962786741719,52.354007835092645,47.93101676410119,5.874245173961697,0.006118514161663533
3,3,550,3,1,True,"[74, 74, 74, 74, 74]","[75, 645, 1221, 1808, 2373]",50.0,50.0,765.7349999062717,0.0,True,2,1,52,6,0,0,19.0,0.9574962786741719,52.354007835092645,47.93101676410119,-2.354007835092645,0.0004439306658018865
3,4,463,4,0,True,"[74, 74, 74, 74]","[32, 640, 1195, 1691]",62.42097,55.0,2374.9549998901784,-7.420969999999997,True,2,1,53,6,0,0,19.0,0.9574962786741719,52.354007835092645,47.93101676410119,-9.261003466571267,0.009491691425746759
3,6,918,1,2,True,"[74, 74, 74, 74, 74, 74, 74, 74]","[27, 571, 1152, 1744, 2256, 2768, 3312, 3851]",13.04687,0.0,2810.9699999913573,-13.04687,True,2,1,54,6,0,0,19.0,0.9574962786741719,52.354007835092645,47.93101676410119,-16.929989080202926,0.07768849617135307
3,2,302,5,2,True,"[74, 74, 74]","[11, 608, 1131]",93.24415,97.0,2764.6200000308454,3.7558499999999952,True,2,1,55,6,0,0,19.0,0.9574962786741719,52.354007835092645,47.93101676410119,3.1912672815138023,0.003462474490156163
3,6,550,3,2,True,"[74, 74, 74, 74]","[5, 603, 1189, 1787]",50.0,50.0,847.3000000230968,0.0,True,2,1,56,6,0,0,19.0,0.9574962786741719,52.354007835092645,47.93101676410119,-2.354007835092645,0.0004439306658018865
3,3,918,1,1,True,"[74, 74, 74, 74, 74, 74, 74]","[293, 816, 1360, 1899, 2464, 3008, 3563]",13.04687,25.0,3377.145000267774,11.95313,True,2,1,57,6,0,0,19.0,0.9574962786741719,52.354007835092645,47.93101676410119,8.070010919797074,0.020158087992388492
3,6,302,5,2,True,"[74, 74, 74]","[11, 603, 1115]",93.24415,100.0,2172.289999667555,6.755849999999995,True,2,1,58,6,0,0,19.0,0.9574962786741719,52.354007835092645,47.93101676410119,6.191267281513802,0.013327555885411657
3,7,390,4,2,True,"[74, 74, 74, 74]","[91, 672, 1211, 1680]",74.79787,77.0,3536.3949998281896,2.202129999999997,True,2,1,59,6,0,0,19.0,0.9574962786741719,52.354007835092645,47.93101676410119,0.8742451739616968,0.00014312771403932542
3,5,774,2,2,True,"[74, 74, 74, 74, 74]","[549, 1125, 1691, 2245, 2795]",25.3549,39.0,2197.300000116229,13.6451,True,2,1,60,6,0,0,19.0,0.9574962786741719,52.354007835092645,47.93101676410119,10.271283684726594,0.01960986461043231
3,2,550,3,2,True,"[74, 74, 74, 74]","[101, 677, 1248, 1835]",50.0,50.0,1275.1899999566376,0.0,True,2,2,61,6,0,0,19.0,0.9574962786741719,52.354007835092645,47.93101676410119,-2.354007835092645,0.0004439306658018865
3,5,918,1,0,True,"[74, 74, 74, 74, 74, 74, 74]","[101, 720, 1323, 1883, 2464, 3024, 3584]",13.04687,13.0,2849.644999951124,-0.04687000000000019,True,2,2,62,6,0,0,19.0,0.9574962786741719,52.354007835092645,47.93101676410119,-3.929989080202926,0.0035951506569724553
3,7,550,3,2,True,"[74, 74, 74, 74]","[101, 709, 1285, 1840]",50.0,50.0,661.809999961406,0.0,True,2,2,63,6,0,0,19.0,0.9574962786741719,52.354007835092645,47.93101676410119,-2.354007835092645,0.0004439306658018865
3,2,652,2,1,True,"[74, 74, 74, 74, 74]","[21, 613, 1189, 1819, 2528]",37.72798,49.0,3235.679999925196,11.272019999999998,True,2,2,64,6,0,0,19.0,0.9574962786741719,52.354007835092645,47.93101676410119,8.410197494947298,0.008436857883983668
3,4,1000,1,0,True,"[74, 74, 74, 74, 74, 74, 74, 74]","[91, 651, 1285, 1888, 2501, 3056, 3653, 4181]",6.87518,28.0,3257.6999999582767,21.12482,True,2,2,65,6,0,0,19.0,0.9574962786741719,52.354007835092645,47.93101676410119,16.98632522702742,0.10768535579598883
3,6,504,3,0,True,"[74, 74, 74, 74]","[80, 683, 1221, 1808]",56.30039,60.0,3125.2150000073016,3.69961,True,2,2,66,6,0,0,19.0,0.9574962786741719,52.354007835092645,47.93101676410119,1.6063061207763027,0.00029474420271823927
3,4,710,2,0,True,"[74, 74, 74, 74, 74]","[123, 715, 1285, 1899, 2613]",31.58063,46.0,2878.78999998793,14.41937,True,2,2,67,6,0,0,19.0,0.9574962786741719,52.354007835092645,47.93101676410119,11.303175096619562,0.018548430065123005
3,2,329,5,0,True,"[74, 74, 74]","[91, 672, 1227]",87.0672,100.0,2911.5900001488626,12.9328,True,2,2,68,6,0,0,19.0,0.9574962786741719,52.354007835092645,47.93101676410119,12.112618810848176,0.04124764117665946
3,6,652,2,2,True,"[74, 74, 74, 74, 74]","[75, 661, 1285, 1840, 2464]",37.72798,43.0,2872.250000014901,5.272019999999998,True,2,2,69,6,0,0,19.0,0.9574962786741719,52.354007835092645,47.93101676410119,2.4101974949472975,0.0007884890008816095
3,4,329,5,1,True,"[74, 74, 74]","[75, 656, 1184]",87.0672,78.0,4274.439999833703,-9.0672,True,2,2,70,6,0,0,19.0,0.9574962786741719,52.354007835092645,47.93101676410119,-9.887381189151824,0.02787743583568956
3,6,425,4,1,True,"[74, 74, 74, 74]","[85, 672, 1216, 1829]",68.59844,72.0,3220.7899997010827,3.4015600000000035,True,2,2,71,6,0,0,19.0,0.9574962786741719,52.354007835092645,47.93101676410119,1.8171504602508577,0.0004904392534713376
3,3,599,3,2,True,"[74, 74, 74, 74, 74]","[59, 645, 1211, 1808, 2411]",43.84378,48.0,2823.5749998129904,4.156219999999998,True,2,2,72,6,0,0,19.0,0.9574962786741719,52.354007835092645,47.93101676410119,1.5474690965396576,0.00029791554274841923
3,7,463,4,1,True,"[74, 74, 74, 74]","[85, 699, 1237, 1808]",62.42097,55.0,2859.014999587089,-7.420969999999997,True,2,2,73,6,0,0,19.0,0.9574962786741719,52.354007835092645,47.93101676410119,-9.261003466571267,0.009491691425746759
3,5,710,2,0,True,"[74, 74, 74, 74, 74]","[123, 736, 1339, 1899, 2587]",31.58063,40.0,3440.3050001710653,8.41937,True,2,2,74,6,0,0,19.0,0.9574962786741719,52.354007835092645,47.93101676410119,5.303175096619562,0.0042976883008535366
3,3,1000,1,0,True,"[74, 74, 74, 74, 74, 74]","[123, 715, 1312, 1941, 2555, 3179]",6.87518,20.0,2978.904999792576,13.12482,True,2,2,75,6,0,0,19.0,0.9574962786741719,52.354007835092645,47.93101676410119,8.986325227027422,0.03138811177206633
3,7,652,2,1,True,"[74, 74, 74, 74, 74]","[96, 704, 1312, 1899, 2571]",37.72798,48.0,3973.34499983117,10.272019999999998,True,2,2,76,6,0,0,19.0,0.9574962786741719,52.354007835092645,47.93101676410119,7.4101974949472975,0.006597281226372786
3,6,329,5,0,True,"[74, 74, 74]","[32, 624, 1157]",87.0672,100.0,2264.115000143647,12.9328,True,2,2,77,6,0,0,19.0,0.9574962786741719,52.354007835092645,47.93101676410119,12.112618810848176,0.04124764117665946
3,5,425,4,1,True,"[74, 74, 74, 74]","[59, 656, 1189, 1813]",68.59844,62.0,3569.5099998265505,-6.5984399999999965,True,2,2,78,6,0,0,19.0,0.9574962786741719,52.354007835092645,47.93101676410119,-8.182849539749142,0.00915287874104863
3,3,358,5,1,True,"[74, 74, 74]","[91, 688, 1264]",80.9736,71.0,3553.9799998514354,-9.973600000000005,True,2,2,79,6,0,0,19.0,0.9574962786741719,52.354007835092645,47.93101676410119,-11.045932144928017,0.02731543556677362
3,4,390,4,2,True,"[74, 74, 74]","[85, 683, 1280]",74.79787,77.0,3359.1350000351667,2.202129999999997,True,2,2,80,6,0,0,19.0,0.9574962786741719,52.354007835092645,47.93101676410119,0.8742451739616968,0.00014312771403932542
3,3,652,2,0,True,"[74, 74, 74, 74, 74]","[85, 699, 1328, 1941, 2533]",37.72798,49.0,3677.790000103414,11.272019999999998,True,2,2,81,6,0,0,19.0,0.9574962786741719,52.354007835092645,47.93101676410119,8.410197494947298,0.008436857883983668
3,2,463,4,2,True,"[74, 74, 74, 74]","[85, 672, 1232, 1835]",62.42097,54.0,3103.215000126511,-8.420969999999997,True,2,2,82,6,0,0,19.0,0.9574962786741719,52.354007835092645,47.93101676410119,-10.261003466571267,0.011676079861557413
3,5,599,3,0,True,"[74, 74, 74, 74, 74]","[144, 699, 1269, 1899, 2501]",43.84378,50.0,559.0200000442564,6.156219999999998,True,2,2,83,6,0,0,19.0,0.9574962786741719,52.354007835092645,47.93101676410119,3.5474690965396576,0.0013716090708796296
3,3,425,4,2,True,"[74, 74, 74, 74]","[69, 672, 1344, 1824]",68.59844,58.0,2586.780000012368,-10.598439999999997,True,2,2,84,6,0,0,19.0,0.9574962786741719,52.354007835092645,47.93101676410119,-12.182849539749142,0.020391067536216435
3,2,843,1,2,True,"[74, 74, 74, 74, 74, 74, 74]","[43, 624, 1195, 1771, 2363, 2971, 3525]",19.19495,25.0,2770.9800000302494,5.805050000000001,True,2,2,85,6,0,0,19.0,0.9574962786741719,52.354007835092645,47.93101676410119,2.176340124865394,0.001406896759293572
3,5,358,5,0,True,"[74, 74, 74, 74]","[27, 629, 1195, 1621]",80.9736,87.0,2492.240000050515,6.026399999999995,True,2,2,86,6,0,0,19.0,0.9574962786741719,52.354007835092645,47.93101676410119,4.954067855071983,0.005477564673604099
3,6,843,1,1,True,"[74, 74, 74, 74, 74, 74, 74]","[43, 613, 1205, 1771, 2352, 2997, 3445]",19.19495,8.0,3763.784999959171,-11.194949999999999,True,2,2,87,6,0,0,19.0,0.9574962786741719,52.354007835092645,47.93101676410119,-14.823659875134606,0.0469042878794576
3,7,358,5,2,True,"[74, 74, 74]","[64, 629, 1173]",80.9736,86.0,2667.969999834895,5.026399999999995,True,2,2,88,6,0,0,19.0,0.9574962786741719,52.354007835092645,47.93101676410119,3.954067855071983,0.0034875280926110206
3,4,504,3,2,True,"[74, 74, 74, 74]","[80, 619, 1168, 1749]",56.30039,50.0,734.7749997861683,-6.30039,True,2,2,89,6,0,0,19.0,0.9574962786741719,52.354007835092645,47.93101676410119,-8.393693879223697,0.006677019889474636
3,7,843,1,2,True,"[74, 74, 74, 74, 74, 74, 74]","[5, 619, 1173, 1760, 2267, 2741, 3232]",19.19495,33.0,3286.9400000199676,13.805050000000001,True,2,2,90,6,0,0,19.0,0.9574962786741719,52.354007835092645,47.93101676410119,10.176340124865394,0.024673154073404587
7,2,463,4,1,True,"[74, 74, 74, 74, 74]","[331, 760, 1109, 1549, 1989]",62.42097,50.0,876,-12.420969999999997,True,2,0,1,4,2,0,26.0,0.9335188222468244,47.19491477182055,54.670525379559805,-10.776135259356906,0.007649029237910335
7,3,329,5,1,True,"[74, 74, 74, 74, 74]","[339, 619, 851, 1139, 1440]",87.0672,81.0,3182,-6.0672,True,2,0,2,4,2,0,26.0,0.9335188222468244,47.19491477182055,54.670525379559805,-6.72458263460274,0.005329152791826775
7,2,504,3,1,True,"[74, 74, 74, 74, 74]","[320, 709, 1179, 1669, 2179]",56.30039,50.0,1374,-6.30039,True,2,0,3,4,2,0,26.0,0.9335188222468244,47.19491477182055,54.670525379559805,-4.083832041932453,0.00126615354322358
7,6,329,5,1,True,"[74, 74, 74, 74, 74]","[331, 741, 952, 1171, 1512]",87.0672,100.0,2863,12.9328,True,2,0,4,4,2,0,26.0,0.9335188222468244,47.19491477182055,54.670525379559805,12.27541736539726,0.025352455727176162
7,2,710,2,0,True,"[74, 74, 74, 74, 74]","[19, 709, 1659, 2309, 2960]",31.58063,15.0,1893,-16.58063,True,2,0,5,4,2,0,26.0,0.9335188222468244,47.19491477182055,54.670525379559805,-12.054981743679527,0.014808283608541913
7,5,302,5,1,True,"[74, 74, 74, 74]","[560, 840, 1091, 1379]",93.24415,97.0,2428,3.7558499999999952,True,2,0,6,4,2,0,26.0,0.9335188222468244,47.19491477182055,54.670525379559805,2.5214734493101503,0.0024340115796389742
7,3,710,2,2,True,"[74, 74, 74, 74, 74]","[491, 821, 1680, 2312, 3021]",31.58063,3.0,2318,-28.58063,True,2,0,7,4,2,0,26.0,0.9335188222468244,47.19491477182055,54.670525379559805,-24.054981743679527,0.050328404420647795
7,4,843,1,0,True,"[74, 74, 74, 74]","[309, 651, 1709, 2629]",19.19495,0.0,1935,-19.19495,True,2,0,8,4,2,0,26.0,0.9335188222468244,47.19491477182055,54.670525379559805,-13.512348729923392,0.031471901740450725
7,7,550,3,0,True,"[74, 74, 74, 74, 74]","[240, 669, 1211, 1731, 2240]",50.0,50.0,1828,0.0,True,2,0,9,4,2,0,26.0,0.9335188222468244,47.19491477182055,54.670525379559805,2.8050852281794505,0.000125875981112185
7,4,710,2,2,True,"[74, 74, 74, 74]","[472, 1512, 2211, 2920]",31.58063,18.0,1930,-13.58063,True,2,0,10,4,2,0,26.0,0.9335188222468244,47.19491477182055,54.670525379559805,-9.054981743679527,0.009221113948381203
7,3,1000,1,2,True,"[74, 74, 74, 74, 74, 74, 74]","[349, 800, 1339, 1800, 2240, 2739, 3160]",6.87518,0.0,2356,-6.87518,True,2,0,11,4,2,0,26.0,0.9335188222468244,47.19491477182055,54.670525379559805,-0.04177927721047105,0.0023219010298911433
7,4,504,3,2,True,[74],[640],56.30039,50.0,708,-6.30039,True,2,0,12,4,2,0,26.0,0.9335188222468244,47.19491477182055,54.670525379559805,-4.083832041932453,0.00126615354322358
7,7,843,1,1,True,"[74, 74, 74, 74]","[331, 691, 1789, 2491]",19.19495,3.0,1584,-16.19495,True,2,0,13,4,2,0,26.0,0.9335188222468244,47.19491477182055,54.670525379559805,-10.512348729923392,0.02097370852047589
7,4,302,5,2,True,"[74, 74]","[611, 840]",93.24415,99.0,1504,5.755849999999995,True,2,0,14,4,2,0,26.0,0.9335188222468244,47.19491477182055,54.670525379559805,4.52147344931015,0.0058912566810006
7,7,390,4,1,True,,,74.79787,63.0,1163,-11.797870000000003,False,1,0,15,4,2,0,26.0,0.9335188222468244,47.19491477182055,54.670525379559805,-11.309171570944812,0.011637292993688922
7,5,550,3,2,True,"[74, 74, 74, 74]","[400, 1032, 1581, 2080]",50.0,30.0,3330,-20.0,True,2,0,16,4,2,0,26.0,0.9335188222468244,47.19491477182055,54.670525379559805,-17.19491477182055,0.016543861735288642
7,2,358,5,0,True,"[74, 74, 74]","[141, 651, 1011]",80.9736,77.0,2812,-3.9736000000000047,True,2,0,17,4,2,0,26.0,0.9335188222468244,47.19491477182055,54.670525379559805,-4.061776172611928,0.0015567683001867637
7,5,463,4,1,True,"[74, 74, 74, 74, 74]","[360, 699, 1080, 1499, 1960]",62.42097,50.0,1002,-12.420969999999997,True,2,0,18,4,2,0,26.0,0.9335188222468244,47.19491477182055,54.670525379559805,-10.776135259356906,0.0076490292379103285
7,6,843,1,0,True,[74],[149],19.19495,11.0,1283,-8.194949999999999,True,2,0,19,4,2,0,26.0,0.9335188222468244,47.19491477182055,54.670525379559805,-2.512348729923392,0.003357334445056468
7,5,774,2,0,True,"[74, 74, 74]","[491, 789, 1611]",25.3549,26.0,1887,0.6450999999999993,True,2,0,20,4,2,0,26.0,0.9335188222468244,47.19491477182055,54.670525379559805,5.752293671317453,0.0009809164225352462
7,7,302,5,1,True,,,93.24415,100.0,2041,6.755849999999995,False,1,0,21,4,2,0,26.0,0.9335188222468244,47.19491477182055,54.670525379559805,5.52147344931015,0.008183722971715632
7,3,599,3,0,True,"[74, 74, 74, 74]","[611, 1171, 1789, 2309]",43.84378,23.0,2931,-20.843780000000002,True,2,0,22,4,2,0,26.0,0.9335188222468244,47.19491477182055,54.670525379559805,-17.463639990908014,0.018610699690029705
7,5,1000,1,1,True,"[74, 74, 74, 74, 74]","[389, 731, 1981, 2971, 3869]",6.87518,26.0,3397,19.12482,True,2,0,23,4,2,0,26.0,0.9335188222468244,47.19491477182055,54.670525379559805,25.95822072278953,0.09509360580193175
7,7,652,2,1,True,"[74, 74, 74, 74, 74]","[371, 741, 1440, 2080, 2741]",37.72798,27.0,4958,-10.727980000000002,True,2,0,24,4,2,0,26.0,0.9335188222468244,47.19491477182055,54.670525379559805,-6.776562116551936,0.0044354305229703786
7,4,390,4,1,True,"[74, 74, 74, 74]","[709, 1019, 1349, 1739]",74.79787,100.0,3077,25.202129999999997,True,2,0,25,4,2,0,26.0,0.9335188222468244,47.19491477182055,54.670525379559805,25.690828429055188,0.06169650596646438
7,6,599,3,2,True,"[74, 74, 74]","[400, 1989, 2491]",43.84378,30.0,3287,-13.843780000000002,True,2,0,26,4,2,0,26.0,0.9335188222468244,47.19491477182055,54.670525379559805,-10.463639990908014,0.007418365565895924
7,3,425,4,1,True,"[74, 74, 74, 74, 74]","[91, 699, 1139, 1339, 1779]",68.59844,63.0,1986,-5.5984399999999965,True,2,0,27,4,2,0,26.0,0.9335188222468244,47.19491477182055,54.670525379559805,-4.530643256358061,0.001654611375787541
7,6,710,2,0,True,"[74, 74, 74, 74, 74]","[349, 699, 1499, 2160, 2869]",31.58063,36.0,4064,4.419370000000001,True,2,0,28,4,2,0,26.0,0.9335188222468244,47.19491477182055,54.670525379559805,8.945018256320473,0.003358124547489343
7,2,1000,1,0,True,[74],[1760],6.87518,16.0,2248,9.12482,True,2,0,29,4,2,0,26.0,0.9335188222468244,47.19491477182055,54.670525379559805,15.958220722789529,0.02932128165274941
7,6,425,4,2,True,"[74, 74, 74, 74]","[821, 1051, 1371, 1840]",68.59844,71.0,4509,2.4015600000000035,True,2,0,30,4,2,0,26.0,0.9335188222468244,47.19491477182055,54.670525379559805,3.4693567436419386,0.000773352705182222
7,3,390,4,0,True,"[74, 74, 74, 74, 74]","[541, 731, 1021, 1280, 1621]",74.79787,79.0,2363,4.202129999999997,True,2,1,31,4,2,0,26.0,0.9335188222468244,47.19491477182055,54.670525379559805,4.690828429055188,0.0021329494257941615
7,2,599,3,2,True,"[74, 74, 74, 74, 74]","[160, 680, 1288, 1859, 2440]",43.84378,50.0,799,6.156219999999998,True,2,1,32,4,2,0,26.0,0.9335188222468244,47.19491477182055,54.670525379559805,9.536360009091986,0.003313030956330754
7,5,710,2,1,True,"[74, 74, 74]","[1720, 2221, 2869]",31.58063,40.0,2267,8.41937,True,2,1,33,4,2,0,26.0,0.9335188222468244,47.19491477182055,54.670525379559805,12.945018256320473,0.008494609742228638
7,6,550,3,0,True,"[74, 74, 74, 74]","[920, 1280, 1771, 2320]",50.0,50.0,2974,0.0,True,2,1,34,4,2,0,26.0,0.9335188222468244,47.19491477182055,54.670525379559805,2.8050852281794505,0.000125875981112185
7,5,329,5,0,True,"[74, 74, 74, 74, 74]","[320, 648, 920, 1139, 1408]",87.0672,100.0,1687,12.9328,True,2,1,35,4,2,0,26.0,0.9335188222468244,47.19491477182055,54.670525379559805,12.27541736539726,0.025352455727176162
7,7,504,3,2,True,"[74, 74, 74, 74]","[709, 1099, 1600, 2149]",56.30039,50.0,1349,-6.30039,True,2,1,36,4,2,0,26.0,0.9335188222468244,47.19491477182055,54.670525379559805,-4.083832041932453,0.00126615354322358
7,5,425,4,2,True,"[74, 74, 74, 74, 74]","[491, 771, 1061, 1501, 1829]",68.59844,77.0,2667,8.401560000000003,True,2,1,37,4,2,0,26.0,0.9335188222468244,47.19491477182055,54.670525379559805,9.469356743641939,0.006268493856743349
7,2,918,1,2,True,"[74, 74, 74]","[299, 669, 1499]",13.04687,0.0,2324,-13.04687,True,2,1,38,4,2,0,26.0,0.9335188222468244,47.19491477182055,54.670525379559805,-6.789977694923608,0.014763357149244066
7,4,329,5,0,True,"[74, 74, 74, 74]","[589, 891, 1179, 1480]",87.0672,99.0,2760,11.9328,True,2,1,39,4,2,0,26.0,0.9335188222468244,47.19491477182055,54.670525379559805,11.27541736539726,0.021609630763076138
7,3,918,1,0,True,"[74, 74, 74, 74, 74]","[149, 669, 1669, 2819, 3720]",13.04687,24.0,5404,10.95313,True,2,1,40,4,2,0,26.0,0.9335188222468244,47.19491477182055,54.670525379559805,17.210022305076393,0.0295703377349692
7,2,329,5,2,True,"[74, 74, 74, 74]","[421, 731, 1051, 1371]",87.0672,75.0,5247,-12.0672,True,2,1,41,4,2,0,26.0,0.9335188222468244,47.19491477182055,54.670525379559805,-12.72458263460274,0.02141406212037917
7,6,918,1,2,True,"[74, 74, 74, 74]","[851, 1829, 2851, 3811]",13.04687,1.0,4113,-12.04687,True,2,1,42,4,2,0,26.0,0.9335188222468244,47.19491477182055,54.670525379559805,-5.789977694923608,0.01194143095137992
7,5,504,3,1,True,"[74, 74, 74, 74]","[581, 1120, 1661, 2160]",56.30039,50.0,1405,-6.30039,True,2,1,43,4,2,0,26.0,0.9335188222468244,47.19491477182055,54.670525379559805,-4.083832041932453,0.00126615354322358
7,4,1000,1,2,True,"[74, 74, 74, 74, 74]","[379, 699, 2000, 2960, 4099]",6.87518,35.0,3315,28.12482,True,2,1,44,4,2,0,26.0,0.9335188222468244,47.19491477182055,54.670525379559805,34.95822072278953,0.18644834609558886
7,2,425,4,2,True,"[74, 74, 74, 74, 74]","[211, 771, 1069, 1429, 1821]",68.59844,64.0,2270,-4.5984399999999965,True,2,1,45,4,2,0,26.0,0.9335188222468244,47.19491477182055,54.670525379559805,-3.5306432563580614,0.0010314469457522832
7,7,918,1,2,True,"[74, 74, 74, 74, 74]","[360, 741, 1960, 2741, 3789]",13.04687,22.0,3573,8.95313,True,2,1,46,4,2,0,26.0,0.9335188222468244,47.19491477182055,54.670525379559805,15.210022305076393,0.021757688608773897
7,3,550,3,1,True,"[74, 74, 74, 74]","[611, 1229, 1789, 2349]",50.0,50.0,1676,0.0,True,2,1,47,4,2,0,26.0,0.9335188222468244,47.19491477182055,54.670525379559805,2.8050852281794505,0.000125875981112185
7,6,652,2,1,True,"[74, 74, 74, 74, 74]","[349, 720, 1320, 2000, 2669]",37.72798,38.0,2525,0.2720199999999977,True,2,1,48,4,2,0,26.0,0.9335188222468244,47.19491477182055,54.670525379559805,4.223437883448064,0.00033687800206241923
7,3,358,5,0,True,"[74, 74, 74, 74, 74]","[139, 629, 1000, 1248, 1560]",80.9736,82.0,8820,1.0263999999999953,True,2,1,49,4,2,0,26.0,0.9335188222468244,47.19491477182055,54.670525379559805,0.9382238273880716,0.00022135444679161382
7,4,652,2,1,True,"[74, 74, 74, 74, 74]","[448, 760, 1459, 2099, 2768]",37.72798,32.0,7877,-5.727980000000002,True,2,1,50,4,2,0,26.0,0.9335188222468244,47.19491477182055,54.670525379559805,-1.7765621165519363,0.0007830990893332077
7,5,918,1,2,True,"[74, 74, 74, 74]","[1040, 1909, 2899, 3771]",13.04687,28.0,2058,14.95313,True,2,1,51,4,2,0,26.0,0.9335188222468244,47.19491477182055,54.670525379559805,21.210022305076393,0.04878403639320608
7,7,710,2,0,True,"[74, 74, 74, 74, 74]","[379, 760, 1509, 2269, 2880]",31.58063,37.0,2467,5.419370000000001,True,2,1,52,4,2,0,26.0,0.9335188222468244,47.19491477182055,54.670525379559805,9.945018256320473,0.004422721809983116
7,6,463,4,0,True,,,62.42097,67.0,3353,4.579030000000003,False,1,1,53,4,2,0,26.0,0.9335188222468244,47.19491477182055,54.670525379559805,6.223864740643094,0.0019233382102049387
7,7,358,5,0,True,,,80.9736,89.0,3643,8.026399999999995,False,1,1,54,4,2,0,26.0,0.9335188222468244,47.19491477182055,54.670525379559805,7.938223827388072,0.00827107110459971
7,3,774,2,0,True,,,25.3549,22.0,3689,-3.3549000000000007,False,1,1,55,4,2,0,26.0,0.9335188222468244,47.19491477182055,54.670525379559805,1.752293671317453,5.1603496683033935e-05
7,6,302,5,0,True,,,93.24415,100.0,2453,6.755849999999995,False,1,1,56,4,2,0,26.0,0.9335188222468244,47.19491477182055,54.670525379559805,5.52147344931015,0.008183722971715632
7,4,463,4,2,True,,,62.42097,50.0,1787,-12.420969999999997,False,1,1,57,4,2,0,26.0,0.9335188222468244,47.19491477182055,54.670525379559805,-10.776135259356906,0.0076490292379103285
7,2,774,2,1,True,,,25.3549,11.0,2198,-14.3549,False,1,1,58,4,2,0,26.0,0.9335188222468244,47.19491477182055,54.670525379559805,-9.247706328682547,0.012784191654105763
7,7,425,4,0,True,,,68.59844,58.0,1555,-10.598439999999997,False,1,1,59,4,2,0,26.0,0.9335188222468244,47.19491477182055,54.670525379559805,-9.530643256358061,0.006969035366862084
7,4,550,3,1,True,,,50.0,50.0,1672,0.0,False,1,1,60,4,2,0,26.0,0.9335188222468244,47.19491477182055,54.670525379559805,2.8050852281794505,0.000125875981112185
7,4,425,4,0,True,,,68.59844,64.0,1555,-4.5984399999999965,False,1,2,61,4,2,0,26.0,0.9335188222468244,47.19491477182055,54.670525379559805,-3.5306432563580614,0.0010314469457522832
7,3,504,3,2,True,"[74, 74, 74, 74]","[579, 1120, 1640, 2160]",56.30039,50.0,946,-6.30039,True,2,2,62,4,2,0,26.0,0.9335188222468244,47.19491477182055,54.670525379559805,-4.083832041932453,0.00126615354322358
7,5,390,4,0,True,"[74, 74, 74, 74, 74]","[160, 640, 971, 1280, 1539]",74.79787,80.0,2111,5.202129999999997,True,2,2,63,4,2,0,26.0,0.9335188222468244,47.19491477182055,54.670525379559805,5.690828429055188,0.0031150490944352903
7,6,504,3,1,True,,,56.30039,50.0,748,-6.30039,False,1,2,64,4,2,0,26.0,0.9335188222468244,47.19491477182055,54.670525379559805,-4.083832041932453,0.00126615354322358
7,4,918,1,1,True,"[74, 74]","[608, 1600]",13.04687,1.0,2380,-12.04687,True,2,2,65,4,2,0,26.0,0.9335188222468244,47.19491477182055,54.670525379559805,-5.789977694923608,0.01194143095137992
7,2,390,4,0,True,"[74, 74]","[589, 1011]",74.79787,92.0,1886,17.202129999999997,True,2,2,66,4,2,0,26.0,0.9335188222468244,47.19491477182055,54.670525379559805,17.690828429055188,0.029363474417834108
7,6,1000,1,1,True,,,6.87518,0.0,2586,-6.87518,False,1,2,67,4,2,0,26.0,0.9335188222468244,47.19491477182055,54.670525379559805,-0.04177927721047105,0.0023219010298911433
7,5,599,3,0,True,,,43.84378,43.0,2388,-0.8437800000000024,False,1,2,68,4,2,0,26.0,0.9335188222468244,47.19491477182055,54.670525379559805,2.536360009091986,5.2821360781615664e-05
7,2,843,1,1,True,"[74, 74, 74]","[509, 2659, 3379]",19.19495,11.0,1715,-8.194949999999999,True,2,2,69,4,2,0,26.0,0.9335188222468244,47.19491477182055,54.670525379559805,-2.512348729923392,0.003357334445056468
7,3,652,2,1,True,"[74, 74, 74, 74]","[400, 1411, 2021, 2560]",37.72798,34.0,2750,-3.7279800000000023,True,2,2,70,4,2,0,26.0,0.9335188222468244,47.19491477182055,54.670525379559805,0.2234378834480637,0.00015719792289823972
7,6,390,4,1,True,"[74, 74, 74, 74, 74]","[309, 720, 960, 1291, 1621]",74.79787,69.0,4508,-5.797870000000003,True,2,2,71,4,2,0,26.0,0.9335188222468244,47.19491477182055,54.670525379559805,-5.309171570944812,0.00251038365584174
7,7,1000,1,0,True,"[74, 74, 74, 74]","[680, 2189, 3099, 4019]",6.87518,24.0,1890,17.12482,True,2,2,72,4,2,0,26.0,0.9335188222468244,47.19491477182055,54.670525379559805,23.95822072278953,0.07893005104840937
7,2,652,2,2,True,"[74, 74, 74, 74, 74]","[331, 709, 1421, 2069, 2709]",37.72798,25.0,3082,-12.727980000000002,True,2,2,73,4,2,0,26.0,0.9335188222468244,47.19491477182055,54.670525379559805,-8.776562116551936,0.0067313945034451475
7,7,329,5,2,True,"[74, 74, 74, 74]","[360, 829, 1189, 1491]",87.0672,94.0,2060,6.9328,True,2,2,74,4,2,0,26.0,0.9335188222468244,47.19491477182055,54.670525379559805,6.27541736539726,0.00737711746736121
7,6,774,2,2,True,"[74, 74, 74]","[1661, 2331, 3040]",25.3549,28.0,1401,2.6450999999999993,True,2,2,75,4,2,0,26.0,0.9335188222468244,47.19491477182055,54.670525379559805,7.752293671317453,0.0025574418820807207
7,7,599,3,1,True,"[74, 74, 74, 74, 74]","[309, 731, 1269, 1901, 2560]",43.84378,50.0,494,6.156219999999998,True,2,2,76,4,2,0,26.0,0.9335188222468244,47.19491477182055,54.670525379559805,9.536360009091986,0.003313030956330754
7,6,358,5,2,True,"[74, 74, 74, 74, 74]","[291, 659, 971, 1280, 1579]",80.9736,72.0,2637,-8.973600000000005,True,2,2,77,4,2,0,26.0,0.9335188222468244,47.19491477182055,54.670525379559805,-9.061776172611928,0.008796525042011264
7,7,774,2,2,True,"[74, 74, 74, 74, 74]","[301, 651, 1571, 2301, 3131]",25.3549,21.0,2570,-4.354900000000001,True,2,2,78,4,2,0,26.0,0.9335188222468244,47.19491477182055,54.670525379559805,0.7522936713174531,0.00028255401381138435
7,3,463,4,2,True,"[74, 74, 74, 74, 74]","[229, 600, 1019, 1448, 1888]",62.42097,64.0,2394,1.579030000000003,True,2,2,79,4,2,0,26.0,0.9335188222468244,47.19491477182055,54.670525379559805,3.2238647406430943,0.0004277746477813824
7,2,302,5,1,True,"[74, 74, 74, 74, 74]","[19, 509, 808, 1099, 1368]",93.24415,91.0,2317,-2.2441500000000048,True,2,2,80,4,2,0,26.0,0.9335188222468244,47.19491477182055,54.670525379559805,-3.4785265506898497,0.0010837761161016308
7,7,463,4,2,True,"[74, 74, 74, 74, 74]","[120, 629, 1091, 1571, 2011]",62.42097,63.0,1250,0.579030000000003,True,2,2,81,4,2,0,26.0,0.9335188222468244,47.19491477182055,54.670525379559805,2.2238647406430943,0.00016791818660555612
7,5,843,1,0,True,"[74, 74, 74, 74, 74]","[48, 408, 1640, 2619, 3560]",19.19495,21.0,1715,1.8050500000000014,True,2,2,82,4,2,0,26.0,0.9335188222468244,47.19491477182055,54.670525379559805,7.487651270076608,0.0025662465327415743
7,2,550,3,0,True,"[74, 74, 74, 74, 74]","[0, 480, 1069, 1619, 2088]",50.0,33.0,1910,-17.0,True,2,2,83,4,2,0,26.0,0.9335188222468244,47.19491477182055,54.670525379559805,-14.19491477182055,0.011587787360305217
7,3,302,5,2,True,"[74, 74, 74, 74]","[419, 731, 1011, 1309]",93.24415,100.0,4583,6.755849999999995,True,2,2,84,4,2,0,26.0,0.9335188222468244,47.19491477182055,54.670525379559805,5.52147344931015,0.008183722971715632
7,5,652,2,2,True,"[74, 74, 74, 74, 74]","[341, 701, 1392, 2141, 2720]",37.72798,15.0,1570,-22.727980000000002,True,2,2,85,4,2,0,26.0,0.9335188222468244,47.19491477182055,54.670525379559805,-18.776562116551936,0.025368626465989568
7,4,358,5,1,True,"[74, 74, 74, 74]","[469, 811, 1120, 1480]",80.9736,79.0,1499,-1.9736000000000047,True,2,2,86,4,2,0,26.0,0.9335188222468244,47.19491477182055,54.670525379559805,-2.0617761726119284,0.00031408161221718164
7,3,843,1,1,True,"[74, 74, 74, 74, 74]","[451, 749, 1771, 2629, 3400]",19.19495,32.0,3743,12.805050000000001,True,2,2,87,4,2,0,26.0,0.9335188222468244,47.19491477182055,54.670525379559805,18.487651270076608,0.028940420421043063
7,4,599,3,0,True,"[74, 74, 74, 74, 74]","[208, 589, 1109, 1699, 2248]",43.84378,50.0,947,6.156219999999998,True,2,2,88,4,2,0,26.0,0.9335188222468244,47.19491477182055,54.670525379559805,9.536360009091986,0.003313030956330754
7,5,358,5,2,True,"[74, 74, 74, 74]","[512, 821, 1200, 1571]",80.9736,83.0,1322,2.0263999999999953,True,2,2,89,4,2,0,26.0,0.9335188222468244,47.19491477182055,54.670525379559805,1.9382238273880716,0.0006627928227241057
7,4,774,2,0,True,"[74, 74, 74, 74]","[400, 1659, 2389, 2989]",25.3549,28.0,1860,2.6450999999999993,True,2,2,90,4,2,0,26.0,0.9335188222468244,47.19491477182055,54.670525379559805,7.752293671317453,0.0025574418820807207
8,4,774,2,1,False,,,25.3549,19.0,13374.95500000022,-6.354900000000001,False,0,0,1,4,0,2,17.0,0.9696182526474164,49.753849340597945,55.57981231537247,-3.358451595750264,0.0022171788571262135
8,2,463,4,2,False,,,62.42097,67.0,6789.429999999818,4.579030000000003,False,0,0,2,4,0,2,17.0,0.9696182526474164,49.753849340597945,55.57981231537247,3.4390456339730875,0.0009557288180261613
8,7,599,3,2,False,,,43.84378,43.0,3103.729999999865,-0.8437800000000024,False,0,0,3,4,0,2,17.0,0.9696182526474164,49.753849340597945,55.57981231537247,0.08938083450836132,7.250643533693475e-06
8,2,358,5,2,False,,,80.9736,82.0,18860.734999999288,1.0263999999999953,False,0,0,4,4,0,2,17.0,0.9696182526474164,49.753849340597945,55.57981231537247,-2.1839885664133334,0.0021433547106095093
8,3,652,2,2,False,,,37.72798,35.0,3394.8899999996065,-2.7279800000000023,False,0,0,5,4,0,2,17.0,0.9696182526474164,49.753849340597945,55.57981231537247,-1.112320985354721,0.00022800385389579346
8,4,302,5,2,False,,,93.24415,100.0,5760.874999999942,6.755849999999995,False,0,0,6,4,0,2,17.0,0.9696182526474164,49.753849340597945,55.57981231537247,2.1761120048064413,0.0005154893463932302
8,5,425,4,0,False,,,68.59844,80.0,4392.550000000512,11.401560000000003,False,0,0,7,4,0,2,17.0,0.9696182526474164,49.753849340597945,55.57981231537247,9.572195825056369,0.011503408681766754
8,6,1000,1,1,False,,,6.87518,0.0,6911.1849999999395,-6.87518,False,0,0,8,4,0,2,17.0,0.9696182526474164,49.753849340597945,55.57981231537247,-1.8164570679492231,0.001064902169015343
8,7,390,4,0,False,,,74.79787,75.0,6890.179999999411,0.2021299999999968,False,0,0,9,4,0,2,17.0,0.9696182526474164,49.753849340597945,55.57981231537247,-2.319073810337116,0.0017439359147647935
8,6,774,2,1,False,,,25.3549,18.0,3302.045000000333,-7.354900000000001,False,0,0,10,4,0,2,17.0,0.9696182526474164,49.753849340597945,55.57981231537247,-4.358451595750264,0.003678063342351521
8,5,550,3,1,False,,,50.0,50.0,1072.079999999958,0.0,False,0,0,11,4,0,2,17.0,0.9696182526474164,49.753849340597945,55.57981231537247,0.24615065940205483,3.4903710840948395e-06
8,6,390,4,1,False,,,74.79787,83.0,4363.715000000375,8.202129999999997,False,0,0,12,4,0,2,17.0,0.9696182526474164,49.753849340597945,55.57981231537247,5.680926189662884,0.004456088169313621
8,2,504,3,0,False,,,56.30039,50.0,807.399999999674,-6.30039,False,0,0,13,4,0,2,17.0,0.9696182526474164,49.753849340597945,55.57981231537247,-6.757343934269812,0.005422653166540126
8,5,358,5,2,False,,,80.9736,80.0,7955.1549999996205,-0.9736000000000047,False,0,0,14,4,0,2,17.0,0.9696182526474164,49.753849340597945,55.57981231537247,-4.183988566413333,0.005915615596294836
8,3,599,3,1,False,,,43.84378,43.0,2092.740000000049,-0.8437800000000024,False,0,0,15,4,0,2,17.0,0.9696182526474164,49.753849340597945,55.57981231537247,0.08938083450836132,7.250643533693475e-06
8,5,918,1,1,False,,,13.04687,13.0,2916.9300000003423,-0.04687000000000019,False,0,0,16,4,0,2,17.0,0.9696182526474164,49.753849340597945,55.57981231537247,4.323107644124711,0.005665918165934959
8,6,550,3,1,False,,,50.0,43.0,30234.27500000072,-7.0,False,0,0,17,4,0,2,17.0,0.9696182526474164,49.753849340597945,55.57981231537247,-6.753849340597945,0.005015217116296459
8,7,652,2,1,False,,,37.72798,32.0,21561.64500000066,-5.727980000000002,False,0,0,18,4,0,2,17.0,0.9696182526474164,49.753849340597945,55.57981231537247,-4.112320985354721,0.0022789843127558125
8,4,599,3,2,False,,,43.84378,49.0,6296.829999999318,5.156219999999998,False,0,0,19,4,0,2,17.0,0.9696182526474164,49.753849340597945,55.57981231537247,6.089380834508361,0.003367810783482569
8,2,710,2,0,False,,,31.58063,34.0,91050.0700000003,2.4193700000000007,False,0,0,20,4,0,2,17.0,0.9696182526474164,49.753849340597945,55.57981231537247,4.721053543118629,0.00297437827833151
8,3,358,5,1,False,,,80.9736,93.0,7353.1849999999395,12.026399999999995,False,0,0,21,4,0,2,17.0,0.9696182526474164,49.753849340597945,55.57981231537247,8.816011433586667,0.014907250525950155
8,2,843,1,0,False,,,19.19495,3.0,6715.37000000081,-16.19495,False,0,0,22,4,0,2,17.0,0.9696182526474164,49.753849340597945,55.57981231537247,-12.511070696866248,0.03683285780182652
8,7,329,5,0,False,,,87.0672,83.0,5581.454999999492,-4.0672,False,0,0,23,4,0,2,17.0,0.9696182526474164,49.753849340597945,55.57981231537247,-7.957611649054385,0.02336381853930431
8,4,1000,1,0,False,,,6.87518,0.0,3154.6749999996973,-6.87518,False,0,0,24,4,0,2,17.0,0.9696182526474164,49.753849340597945,55.57981231537247,-1.8164570679492231,0.001064902169015343
8,5,774,2,0,False,,,25.3549,4.0,6159.259999999427,-21.3549,False,0,0,25,4,0,2,17.0,0.9696182526474164,49.753849340597945,55.57981231537247,-18.358451595750264,0.06274453028909847
8,7,1000,1,0,False,,,6.87518,0.0,4781.690000000759,-6.87518,False,0,0,26,4,0,2,17.0,0.9696182526474164,49.753849340597945,55.57981231537247,-1.8164570679492231,0.001064902169015343
8,4,463,4,2,False,,,62.42097,69.0,4246.114999999874,6.579030000000003,False,0,0,27,4,0,2,17.0,0.9696182526474164,49.753849340597945,55.57981231537247,5.4390456339730875,0.002774969982541071
8,3,918,1,0,False,,,13.04687,10.0,6342.499999999767,-3.04687,False,0,0,28,4,0,2,17.0,0.9696182526474164,49.753849340597945,55.57981231537247,1.3231076441247112,0.000556761326530499
8,6,329,5,1,False,,,87.0672,97.0,9083.415000000037,9.9328,False,0,0,29,4,0,2,17.0,0.9696182526474164,49.753849340597945,55.57981231537247,6.042388350945615,0.007779270280705052
8,3,463,4,0,False,,,62.42097,64.0,10145.26500000013,1.579030000000003,False,0,0,30,4,0,2,17.0,0.9696182526474164,49.753849340597945,55.57981231537247,0.4390456339730875,2.992262353362552e-06
8,4,710,2,2,False,,,31.58063,29.0,3605.540000000503,-2.5806299999999993,False,0,1,31,4,0,2,17.0,0.9696182526474164,49.753849340597945,55.57981231537247,-0.2789464568813713,3.2660873137035555e-05
8,3,1000,1,2,False,,,6.87518,1.0,4701.364999999874,-5.87518,False,0,1,32,4,0,2,17.0,0.9696182526474164,49.753849340597945,55.57981231537247,-0.8164570679492231,0.00017725832272989667
8,5,710,2,1,False,,,31.58063,42.0,4166.914999999688,10.41937,False,0,1,33,4,0,2,17.0,0.9696182526474164,49.753849340597945,55.57981231537247,12.721053543118629,0.022783604871566086
8,3,329,5,0,False,,,87.0672,98.0,8126.639999999548,10.9328,False,0,1,34,4,0,2,17.0,0.9696182526474164,49.753849340597945,55.57981231537247,7.042388350945615,0.011112997670444616
8,5,843,1,2,False,,,19.19495,13.0,2832.674999999581,-6.194949999999999,False,0,1,35,4,0,2,17.0,0.9696182526474164,49.753849340597945,55.57981231537247,-2.5110706968662484,0.0015155569819110368
8,7,774,2,2,False,,,25.3549,34.0,4883.514999999548,8.6451,False,0,1,36,4,0,2,17.0,0.9696182526474164,49.753849340597945,55.57981231537247,11.641548404249736,0.02443429346856678
8,5,302,5,1,False,,,93.24415,97.0,7587.470000000438,3.7558499999999952,False,0,1,37,4,0,2,17.0,0.9696182526474164,49.753849340597945,55.57981231537247,-0.8238879951935587,0.0012414405601462771
8,4,504,3,0,False,,,56.30039,56.0,3130.390000000247,-0.30039000000000016,False,0,1,38,4,0,2,17.0,0.9696182526474164,49.753849340597945,55.57981231537247,-0.7573439342698123,0.00016665205210905862
8,7,425,4,1,False,,,68.59844,55.0,3596.609999999637,-13.598439999999997,False,0,1,39,4,0,2,17.0,0.9696182526474164,49.753849340597945,55.57981231537247,-15.427804174943631,0.03772947842880944
8,4,918,1,1,False,,,13.04687,20.0,2199.3299999994924,6.95313,False,0,1,40,4,0,2,17.0,0.9696182526474164,49.753849340597945,55.57981231537247,11.323107644124711,0.03835753608609752
8,6,710,2,2,False,,,31.58063,36.0,2979.3499999996275,4.419370000000001,False,0,1,41,4,0,2,17.0,0.9696182526474164,49.753849340597945,55.57981231537247,6.721053543118629,0.006184091225302837
8,5,504,3,2,False,,,56.30039,53.0,2128.474999999511,-3.30039,False,0,1,42,4,0,2,17.0,0.9696182526474164,49.753849340597945,55.57981231537247,-3.7573439342698123,0.0018726410104309052
8,7,843,1,1,False,,,19.19495,35.0,4215.665000000619,15.805050000000001,False,0,1,43,4,0,2,17.0,0.9696182526474164,49.753849340597945,55.57981231537247,19.48892930313375,0.08859257394440871
8,3,550,3,2,False,,,50.0,50.0,2567.450000000419,0.0,False,0,1,44,4,0,2,17.0,0.9696182526474164,49.753849340597945,55.57981231537247,0.24615065940205483,3.4903710840948395e-06
8,6,843,1,2,False,,,19.19495,20.0,2763.385000000242,0.8050500000000014,False,0,1,45,4,0,2,17.0,0.9696182526474164,49.753849340597945,55.57981231537247,4.488929303133752,0.004646052051707548
8,2,652,2,2,False,,,37.72798,45.0,3035.1950000004144,7.272019999999998,False,0,1,46,4,0,2,17.0,0.9696182526474164,49.753849340597945,55.57981231537247,8.887679014645279,0.008779048676062804
8,6,302,5,0,False,,,93.24415,100.0,5957.924999999697,6.755849999999995,False,0,1,47,4,0,2,17.0,0.9696182526474164,49.753849340597945,55.57981231537247,2.1761120048064413,0.0005154893463932302
8,3,710,2,1,False,,,31.58063,36.0,2265.8849999997765,4.419370000000001,False,0,1,48,4,0,2,17.0,0.9696182526474164,49.753849340597945,55.57981231537247,6.721053543118629,0.006184091225302837
8,7,302,5,1,False,,,93.24415,100.0,2565.810000000056,6.755849999999995,False,0,1,49,4,0,2,17.0,0.9696182526474164,49.753849340597945,55.57981231537247,2.1761120048064413,0.0005154893463932302
8,5,463,4,2,False,,,62.42097,62.0,2557.2949999996927,-0.42096999999999696,False,0,1,50,4,0,2,17.0,0.9696182526474164,49.753849340597945,55.57981231537247,-1.5609543660269125,0.0005519180193045404
8,2,302,5,1,False,,,93.24415,97.0,3695.0299999999115,3.7558499999999952,False,0,1,51,4,0,2,17.0,0.9696182526474164,49.753849340597945,55.57981231537247,-0.8238879951935587,0.0012414405601462771
8,6,599,3,2,False,,,43.84378,48.0,4832.97500000021,4.156219999999998,False,0,1,52,4,0,2,17.0,0.9696182526474164,49.753849340597945,55.57981231537247,5.089380834508361,0.00229555191062719
8,3,425,4,2,False,,,68.59844,64.0,3015.195000000065,-4.5984399999999965,False,0,1,53,4,0,2,17.0,0.9696182526474164,49.753849340597945,55.57981231537247,-6.427804174943631,0.007344948580879236
8,7,550,3,1,False,,,50.0,50.0,1455.7400000002235,0.0,False,0,1,54,4,0,2,17.0,0.9696182526474164,49.753849340597945,55.57981231537247,0.24615065940205483,3.4903710840948395e-06
8,6,425,4,2,False,,,68.59844,55.0,5665.200000000419,-13.598439999999997,False,0,1,55,4,0,2,17.0,0.9696182526474164,49.753849340597945,55.57981231537247,-15.427804174943631,0.03772947842880944
8,2,1000,1,2,False,,,6.87518,0.0,2520.4050000002608,-6.87518,False,0,1,56,4,0,2,17.0,0.9696182526474164,49.753849340597945,55.57981231537247,-1.8164570679492231,0.001064902169015343
8,4,425,4,1,False,,,68.59844,66.0,2560.125,-2.5984399999999965,False,0,1,57,4,0,2,17.0,0.9696182526474164,49.753849340597945,55.57981231537247,-4.427804174943631,0.0037924779497967337
8,2,599,3,2,False,,,43.84378,46.0,3524.5000000004657,2.1562199999999976,False,0,1,58,4,0,2,17.0,0.9696182526474164,49.753849340597945,55.57981231537247,3.0893808345083613,0.0007656327843531122
8,4,329,5,1,False,,,87.0672,95.0,6052.149999999674,7.9328,False,0,1,59,4,0,2,17.0,0.9696182526474164,49.753849340597945,55.57981231537247,4.042388350945615,0.002890579264510297
8,2,425,4,0,False,,,68.59844,66.0,2513.3249999999534,-2.5984399999999965,False,0,1,60,4,0,2,17.0,0.9696182526474164,49.753849340597945,55.57981231537247,-4.427804174943631,0.0037924779497967337
8,5,1000,1,0,False,,,6.87518,0.0,4982.954999999609,-6.87518,False,0,2,61,4,0,2,17.0,0.9696182526474164,49.753849340597945,55.57981231537247,-1.8164570679492231,0.001064902169015343
8,6,358,5,2,False,,,80.9736,79.0,4829.780000000028,-1.9736000000000047,False,0,2,62,4,0,2,17.0,0.9696182526474164,49.753849340597945,55.57981231537247,-5.183988566413333,0.0085047809486468
8,4,550,3,1,False,,,50.0,49.0,7359.255000000354,-1.0,False,0,2,63,4,0,2,17.0,0.9696182526474164,49.753849340597945,55.57981231537247,-0.7538493405979452,0.0001373172777489166
8,5,329,5,0,False,,,87.0672,100.0,13703.314999999944,12.9328,False,0,2,64,4,0,2,17.0,0.9696182526474164,49.753849340597945,55.57981231537247,9.042388350945615,0.019559216213208126
8,2,774,2,1,False,,,25.3549,15.0,4575.340000000317,-10.3549,False,0,2,65,4,0,2,17.0,0.9696182526474164,49.753849340597945,55.57981231537247,-7.358451595750264,0.010267235892518451
8,5,599,3,0,False,,,43.84378,43.0,3188.374999999767,-0.8437800000000024,False,0,2,66,4,0,2,17.0,0.9696182526474164,49.753849340597945,55.57981231537247,0.08938083450836132,7.250643533693475e-06
8,2,329,5,0,False,,,87.0672,85.0,3532.0800000000745,-2.0671999999999997,False,0,2,67,4,0,2,17.0,0.9696182526474164,49.753849340597945,55.57981231537247,-5.957611649054385,0.014022399449224055
8,7,504,3,0,False,,,56.30039,50.0,1484.320000000298,-6.30039,False,0,2,68,4,0,2,17.0,0.9696182526474164,49.753849340597945,55.57981231537247,-6.757343934269812,0.005422653166540126
8,5,652,2,2,False,,,37.72798,35.0,4210.65000000014,-2.7279800000000023,False,0,2,69,4,0,2,17.0,0.9696182526474164,49.753849340597945,55.57981231537247,-1.112320985354721,0.00022800385389579346
8,6,463,4,0,False,,,62.42097,62.0,2597.9500000001863,-0.42096999999999696,False,0,2,70,4,0,2,17.0,0.9696182526474164,49.753849340597945,55.57981231537247,-1.5609543660269125,0.0005519180193045404
8,2,918,1,1,False,,,13.04687,2.0,3325.66500000027,-11.04687,False,0,2,71,4,0,2,17.0,0.9696182526474164,49.753849340597945,55.57981231537247,-6.676892355875289,0.013043516982641322
8,4,652,2,0,False,,,37.72798,45.0,5012.789999999804,7.272019999999998,False,0,2,72,4,0,2,17.0,0.9696182526474164,49.753849340597945,55.57981231537247,8.887679014645279,0.008779048676062804
8,6,918,1,0,False,,,13.04687,22.0,2692.7299999997485,8.95313,False,0,2,73,4,0,2,17.0,0.9696182526474164,49.753849340597945,55.57981231537247,13.323107644124711,0.05303892028197166
8,5,390,4,1,False,,,74.79787,90.0,4765.409999999916,15.202129999999997,False,0,2,74,4,0,2,17.0,0.9696182526474164,49.753849340597945,55.57981231537247,12.680926189662884,0.02614819467070261
8,4,843,1,2,False,,,19.19495,20.0,2846.540000000503,0.8050500000000014,False,0,2,75,4,0,2,17.0,0.9696182526474164,49.753849340597945,55.57981231537247,4.488929303133752,0.004646052051707548
8,3,774,2,0,False,,,25.3549,13.0,2456.6950000007637,-12.3549,False,0,2,76,4,0,2,17.0,0.9696182526474164,49.753849340597945,55.57981231537247,-9.358451595750264,0.016498783504705575
8,2,390,4,1,False,,,74.79787,95.0,3504.464999999851,20.202129999999997,False,0,2,77,4,0,2,17.0,0.9696182526474164,49.753849340597945,55.57981231537247,17.680926189662884,0.052681969759499785
8,3,843,1,1,False,,,19.19495,0.0,10624.354999999981,-19.19495,False,0,2,78,4,0,2,17.0,0.9696182526474164,49.753849340597945,55.57981231537247,-15.511070696866248,0.05655621292263945
8,6,652,2,0,False,,,37.72798,43.0,5395.155000000261,5.272019999999998,False,0,2,79,4,0,2,17.0,0.9696182526474164,49.753849340597945,55.57981231537247,6.887679014645279,0.005174975545266275
8,4,390,4,0,False,,,74.79787,100.0,12641.464999999851,25.202129999999997,False,0,2,80,4,0,2,17.0,0.9696182526474164,49.753849340597945,55.57981231537247,22.680926189662884,0.08841525593337253
8,6,504,3,0,False,,,56.30039,53.0,2108.1450000002515,-3.30039,False,0,2,81,4,0,2,17.0,0.9696182526474164,49.753849340597945,55.57981231537247,-3.7573439342698123,0.0018726410104309052
8,3,390,4,1,False,,,74.79787,68.0,1972.0600000000559,-6.797870000000003,False,0,2,82,4,0,2,17.0,0.9696182526474164,49.753849340597945,55.57981231537247,-9.319073810337116,0.018689775970693347
8,7,358,5,2,False,,,80.9736,80.0,3131.39499999932,-0.9736000000000047,False,0,2,83,4,0,2,17.0,0.9696182526474164,49.753849340597945,55.57981231537247,-4.183988566413333,0.005915615596294836
8,2,550,3,1,False,,,50.0,47.0,2241.0249999992084,-3.0,False,0,2,84,4,0,2,17.0,0.9696182526474164,49.753849340597945,55.57981231537247,-2.753849340597945,0.0009871051480155049
8,7,463,4,2,False,,,62.42097,53.0,8861.670000000391,-9.420969999999997,False,0,2,85,4,0,2,17.0,0.9696182526474164,49.753849340597945,55.57981231537247,-10.560954366026913,0.014744510186841971
8,4,358,5,0,False,,,80.9736,98.0,2402.4650000003166,17.026399999999995,False,0,2,86,4,0,2,17.0,0.9696182526474164,49.753849340597945,55.57981231537247,13.816011433586667,0.039456618938019654
8,7,710,2,0,False,,,31.58063,30.0,5062.170000000158,-1.5806299999999993,False,0,2,87,4,0,2,17.0,0.9696182526474164,49.753849340597945,55.57981231537247,0.7210535431186287,4.013978706349134e-05
8,3,504,3,0,False,,,56.30039,53.0,2654.7700000000186,-3.30039,False,0,2,88,4,0,2,17.0,0.9696182526474164,49.753849340597945,55.57981231537247,-3.7573439342698123,0.0018726410104309052
8,7,918,1,2,False,,,13.04687,6.0,2879.100000000093,-7.04687,False,0,2,89,4,0,2,17.0,0.9696182526474164,49.753849340597945,55.57981231537247,-2.676892355875289,0.0020526529919454176
8,3,302,5,2,False,,,93.24415,100.0,2253.6850000005215,6.755849999999995,False,0,2,90,4,0,2,17.0,0.9696182526474164,49.753849340597945,55.57981231537247,2.1761120048064413,0.0005154893463932302
10,2,550,3,2,True,,,50.0,10.0,5975.435000000289,-40.0,False,1,0,1,6,0,0,17.0,0.9149811520628217,46.03931256236699,42.90667757186711,-36.03931256236699,0.07006065903153176
10,7,918,1,2,True,,,13.04687,0.0,2723.265000000538,-13.04687,False,1,0,2,6,0,0,17.0,0.9149811520628217,46.03931256236699,42.90667757186711,-14.328594667598614,0.03219712313343043
10,2,425,4,2,True,,,68.59844,68.0,3364.6150000022317,-0.5984399999999965,False,1,0,3,6,0,0,17.0,0.9149811520628217,46.03931256236699,42.90667757186711,6.000743039489194,0.0019081118885161154
10,7,710,2,2,True,,,31.58063,22.0,2565.6249999992724,-9.58063,False,1,0,4,6,0,0,17.0,0.9149811520628217,46.03931256236699,42.90667757186711,-8.233032912445655,0.005646962233066581
10,6,843,1,2,True,,,19.19495,0.0,2396.339999999327,-19.19495,False,1,0,5,6,0,0,17.0,0.9149811520628217,46.03931256236699,42.90667757186711,-19.604465066038834,0.04834916606339476
10,5,390,4,0,True,,,74.79787,100.0,2234.9500000018743,25.202129999999997,False,1,0,6,6,0,0,17.0,0.9149811520628217,46.03931256236699,42.90667757186711,32.68079912480192,0.09783829740486753
10,3,843,1,1,True,,,19.19495,16.0,1482.785000000149,-3.1949499999999986,False,1,0,7,6,0,0,17.0,0.9149811520628217,46.03931256236699,42.90667757186711,-3.604465066038834,0.0016552334166477333
10,7,599,3,0,True,,,43.84378,47.0,7906.685000001802,3.1562199999999976,False,1,0,8,6,0,0,17.0,0.9149811520628217,46.03931256236699,42.90667757186711,6.243545699321444,0.001786192885979514
10,4,774,2,2,True,,,25.3549,7.0,2427.015000001178,-18.3549,False,1,0,9,6,0,0,17.0,0.9149811520628217,46.03931256236699,42.90667757186711,-17.890527616468102,0.03209406938517613
10,7,302,5,0,True,,,93.24415,100.0,2943.1100000001024,6.755849999999995,False,1,0,10,6,0,0,17.0,0.9149811520628217,46.03931256236699,42.90667757186711,16.851428454952682,0.046715093575131414
10,6,550,3,0,True,,,50.0,50.0,1235.6599999984028,0.0,False,1,0,11,6,0,0,17.0,0.9149811520628217,46.03931256236699,42.90667757186711,3.9606874376330126,0.0005640330266240139
10,4,358,5,1,True,,,80.9736,80.0,1751.465000001248,-0.9736000000000047,False,1,0,12,6,0,0,17.0,0.9149811520628217,46.03931256236699,42.90667757186711,7.381200732386219,0.004629703637838863
10,3,652,2,0,True,,,37.72798,21.0,1465.0299999993294,-16.727980000000002,False,1,0,13,6,0,0,17.0,0.9149811520628217,46.03931256236699,42.90667757186711,-14.508282781181208,0.014123211701053337
10,4,918,1,1,True,,,13.04687,8.0,3374.8799999994226,-5.04687,False,1,0,14,6,0,0,17.0,0.9149811520628217,46.03931256236699,42.90667757186711,-6.3285946675986136,0.006170427375148849
10,6,302,5,1,True,,,93.24415,80.0,2529.5549999973737,-13.244150000000005,False,1,0,15,6,0,0,17.0,0.9149811520628217,46.03931256236699,42.90667757186711,-3.148571545047318,0.0044400550410125285
10,4,599,3,0,True,,,43.84378,58.0,5004.049999999523,14.156219999999998,False,1,0,16,6,0,0,17.0,0.9149811520628217,46.03931256236699,42.90667757186711,17.243545699321444,0.015318001739713885
10,2,1000,1,0,True,,,6.87518,0.0,1809.5150000008289,-6.87518,False,1,0,17,6,0,0,17.0,0.9149811520628217,46.03931256236699,42.90667757186711,-9.032454349033914,0.015507421539275531
10,5,504,3,1,True,,,56.30039,54.0,3533.0900000008405,-2.30039,False,1,0,18,6,0,0,17.0,0.9149811520628217,46.03931256236699,42.90667757186711,2.5541077481963725,0.0001693419560760207
10,4,425,4,0,True,,,68.59844,61.0,1777.9699999991572,-7.5984399999999965,False,1,0,19,6,0,0,17.0,0.9149811520628217,46.03931256236699,42.90667757186711,-0.9992569605108059,0.00032830307255606023
10,2,358,5,1,True,,,80.9736,69.0,2495.8850000003004,-11.973600000000005,False,1,0,20,6,0,0,17.0,0.9149811520628217,46.03931256236699,42.90667757186711,-3.618799267613781,0.003050811181515681
10,5,843,1,2,True,,,19.19495,15.0,2596.5649999998277,-4.194949999999999,False,1,0,21,6,0,0,17.0,0.9149811520628217,46.03931256236699,42.90667757186711,-4.604465066038834,0.0026920067681195626
10,3,504,3,2,True,,,56.30039,50.0,842.6849999996484,-6.30039,False,1,0,22,6,0,0,17.0,0.9149811520628217,46.03931256236699,42.90667757186711,-1.4458922518036275,0.0002764228382447159
10,5,329,5,2,True,,,87.0672,83.0,2641.234999999113,-4.0672,False,1,0,23,6,0,0,17.0,0.9149811520628217,46.03931256236699,42.90667757186711,5.152077971929316,0.0021938493839657783
10,2,710,2,2,True,,,31.58063,41.0,4505.675000000338,9.41937,False,1,0,24,6,0,0,17.0,0.9149811520628217,46.03931256236699,42.90667757186711,10.766967087554345,0.008550926656282747
10,7,390,4,0,True,,,74.79787,65.0,2523.7149999993853,-9.797870000000003,False,1,0,25,6,0,0,17.0,0.9149811520628217,46.03931256236699,42.90667757186711,-2.319200875198078,0.0012085352767403175
10,3,329,5,2,True,,,87.0672,83.0,1822.3450000005541,-4.0672,False,1,0,26,6,0,0,17.0,0.9149811520628217,46.03931256236699,42.90667757186711,5.152077971929316,0.0021938493839657783
10,6,652,2,2,True,,,37.72798,29.0,2115.0750000015832,-8.727980000000002,False,1,0,27,6,0,0,17.0,0.9149811520628217,46.03931256236699,42.90667757186711,-6.508282781181208,0.0030385491522636593
10,3,390,4,0,True,,,74.79787,76.0,2577.9699999984587,1.2021299999999968,False,1,0,28,6,0,0,17.0,0.9149811520628217,46.03931256236699,42.90667757186711,8.680799124801922,0.005545426374104623
10,5,710,2,2,True,,,31.58063,25.0,1772.929999999178,-6.580629999999999,False,1,0,29,6,0,0,17.0,0.9149811520628217,46.03931256236699,42.90667757186711,-5.233032912445655,0.0023697767011962912
10,6,425,4,0,True,,,68.59844,59.0,2269.5600000005215,-9.598439999999997,False,1,0,30,6,0,0,17.0,0.9149811520628217,46.03931256236699,42.90667757186711,-2.999256960510806,0.0012799640850188066
10,7,463,4,1,True,,,62.42097,53.0,9805.609999999404,-9.420969999999997,False,1,1,31,6,0,0,17.0,0.9149811520628217,46.03931256236699,42.90667757186711,-3.6981647399432305,0.0013562954442701142
10,2,652,2,1,True,,,37.72798,39.0,2279.719999998575,1.2720199999999977,False,1,1,32,6,0,0,17.0,0.9149811520628217,46.03931256236699,42.90667757186711,3.491717218818792,0.000601454403912765
10,7,358,5,2,True,"[74, 74, 74]","[8, 568, 1219]",80.9736,71.0,2667.665000000852,-9.973600000000005,True,2,1,33,6,0,0,17.0,0.9149811520628217,46.03931256236699,42.90667757186711,-1.618799267613781,0.001077173208176445
10,5,1000,1,0,True,"[74, 74, 74, 74, 74, 74]","[611, 1251, 1829, 2469, 3040, 3661]",6.87518,9.0,3470.9699999984587,2.1248199999999997,True,2,1,34,6,0,0,17.0,0.9149811520628217,46.03931256236699,42.90667757186711,-0.0324543490339142,7.609906178083681e-06
10,6,329,5,0,True,"[74, 74]","[568, 1200]",87.0672,85.0,2963.6649999993388,-2.0671999999999997,True,2,1,35,6,0,0,17.0,0.9149811520628217,46.03931256236699,42.90667757186711,7.152077971929316,0.005190984222143888
10,3,918,1,2,True,"[74, 74, 74]","[539, 1200, 1819]",13.04687,15.0,1790.0850000005448,1.9531299999999998,True,2,1,36,6,0,0,17.0,0.9149811520628217,46.03931256236699,42.90667757186711,0.6714053324013864,9.449774015246525e-05
10,5,358,5,1,True,[74],[501],80.9736,61.0,2408.7999999974854,-19.973600000000005,True,2,1,37,6,0,0,17.0,0.9149811520628217,46.03931256236699,42.90667757186711,-11.618799267613781,0.020992960092803117
10,4,710,2,1,True,"[74, 74, 74, 74]","[491, 1069, 1669, 2341]",31.58063,43.0,2575.880000000354,11.41937,True,2,1,38,6,0,0,17.0,0.9149811520628217,46.03931256236699,42.90667757186711,12.766967087554345,0.012125350073373188
10,3,358,5,0,True,[74],[509],80.9736,72.0,2672.2350000018487,-8.973600000000005,True,2,1,39,6,0,0,17.0,0.9149811520628217,46.03931256236699,42.90667757186711,-0.618799267613781,0.0004671391096792201
10,6,390,4,1,True,,,74.79787,62.0,3920.380000003148,-12.797870000000003,False,1,1,40,6,0,0,17.0,0.9149811520628217,46.03931256236699,42.90667757186711,-5.319200875198078,0.004167274954739363
10,2,302,5,2,True,"[74, 74]","[11, 691]",93.24415,80.0,2851.1450000006007,-13.244150000000005,True,2,1,41,6,0,0,17.0,0.9149811520628217,46.03931256236699,42.90667757186711,-3.148571545047318,0.0044400550410125285
10,7,774,2,0,True,"[74, 74, 74]","[29, 619, 1829]",25.3549,38.0,2799.4200000029523,12.6451,True,2,1,42,6,0,0,17.0,0.9149811520628217,46.03931256236699,42.90667757186711,13.109472383531898,0.01653572187742464
10,6,504,3,2,True,[74],[600],56.30039,53.0,2953.349999996135,-3.30039,True,2,1,43,6,0,0,17.0,0.9149811520628217,46.03931256236699,42.90667757186711,1.5541077481963725,3.139772100873594e-05
10,4,302,5,0,True,"[74, 74]","[411, 1000]",93.24415,88.0,2924.5200000004843,-5.244150000000005,True,2,1,44,6,0,0,17.0,0.9149811520628217,46.03931256236699,42.90667757186711,4.851428454952682,0.002159875074751644
10,6,774,2,0,True,"[74, 74, 74, 74, 74]","[509, 1149, 1651, 2251, 2819]",25.3549,27.0,3343.3650000005728,1.6450999999999993,True,2,1,45,6,0,0,17.0,0.9149811520628217,46.03931256236699,42.90667757186711,2.109472383531898,0.0003761047238561177
10,4,504,3,2,True,"[74, 74, 74]","[531, 1059, 1619]",56.30039,50.0,1106.4099999929313,-6.30039,True,2,1,46,6,0,0,17.0,0.9149811520628217,46.03931256236699,42.90667757186711,-1.4458922518036275,0.0002764228382447159
10,2,463,4,0,True,"[74, 74, 74]","[451, 989, 1539]",62.42097,50.0,1118.719999998575,-12.420969999999997,True,2,1,47,6,0,0,17.0,0.9149811520628217,46.03931256236699,42.90667757186711,-6.6981647399432305,0.0036876980913053
10,7,550,3,2,True,"[74, 74, 74, 74]","[568, 1048, 1568, 2128]",50.0,48.0,2919.6549999979325,-2.0,True,2,1,48,6,0,0,17.0,0.9149811520628217,46.03931256236699,42.90667757186711,1.9606874376330126,8.70008286058377e-05
10,5,463,4,2,True,"[74, 74, 74]","[531, 1099, 1669]",62.42097,52.0,2786.88500000129,-10.420969999999997,True,2,1,49,6,0,0,17.0,0.9149811520628217,46.03931256236699,42.90667757186711,-4.6981647399432305,0.0020065100011081036
10,3,550,3,0,True,"[74, 74, 74, 74]","[560, 1059, 1611, 2160]",50.0,46.0,2625.605000001029,-4.0,True,2,1,50,6,0,0,17.0,0.9149811520628217,46.03931256236699,42.90667757186711,-0.039312562366987436,2.5954261983825786e-05
10,2,843,1,1,True,"[74, 74, 74, 74, 74, 74]","[469, 1040, 1611, 2251, 2851, 3429]",19.19495,0.0,5524.59500000265,-19.19495,True,2,1,51,6,0,0,17.0,0.9149811520628217,46.03931256236699,42.90667757186711,-19.604465066038834,0.04834916606339476
10,4,390,4,1,True,"[74, 74, 74]","[269, 819, 1339]",74.79787,65.0,3575.2599999977974,-9.797870000000003,True,2,1,52,6,0,0,17.0,0.9149811520628217,46.03931256236699,42.90667757186711,-2.319200875198078,0.0012085352767403175
10,7,843,1,0,True,"[74, 74, 74, 74, 74]","[619, 1288, 1939, 2520, 3088]",19.19495,13.0,3135.820000003092,-6.194949999999999,True,2,1,53,6,0,0,17.0,0.9149811520628217,46.03931256236699,42.90667757186711,-6.604465066038834,0.005518192446643164
10,3,710,2,2,True,"[74, 74, 74, 74, 74]","[11, 640, 1219, 1829, 2469]",31.58063,21.0,2621.0050000008196,-10.58063,True,2,1,54,6,0,0,17.0,0.9149811520628217,46.03931256236699,42.90667757186711,-9.233032912445655,0.007050666262879412
10,6,1000,1,0,True,"[74, 74, 74, 74, 74]","[520, 1168, 1749, 2328, 2920]",6.87518,2.0,2677.1349999981467,-4.87518,True,2,1,55,6,0,0,17.0,0.9149811520628217,46.03931256236699,42.90667757186711,-7.032454349033914,0.009262658897589577
10,5,774,2,0,True,"[74, 74, 74, 74]","[571, 1179, 1760, 3011]",25.3549,29.0,2563.710000002058,3.6450999999999993,True,2,1,56,6,0,0,17.0,0.9149811520628217,46.03931256236699,42.90667757186711,4.109472383531898,0.0015403724793105074
10,4,1000,1,0,True,"[74, 74, 74, 74, 74]","[509, 1120, 1661, 2200, 2760]",6.87518,21.0,2328.71999999776,14.12482,True,2,1,57,6,0,0,17.0,0.9149811520628217,46.03931256236699,42.90667757186711,11.967545650966086,0.029747675413338837
10,5,550,3,2,True,"[74, 74, 74, 74]","[549, 1131, 1589, 2221]",50.0,50.0,1334.709999995539,0.0,True,2,1,58,6,0,0,17.0,0.9149811520628217,46.03931256236699,42.90667757186711,3.9606874376330126,0.0005640330266240139
10,3,425,4,2,True,[74],[619],68.59844,71.0,3440.744999999879,2.4015600000000035,True,2,1,59,6,0,0,17.0,0.9149811520628217,46.03931256236699,42.90667757186711,9.000743039489194,0.004923564409441697
10,2,599,3,1,True,"[74, 74, 74, 74]","[69, 749, 1400, 2029]",43.84378,48.0,3438.4199999985285,4.156219999999998,True,2,1,60,6,0,0,17.0,0.9149811520628217,46.03931256236699,42.90667757186711,7.243545699321444,0.0024673768309940638
10,6,918,1,1,True,"[74, 74, 74, 74, 74, 74, 74]","[589, 1080, 1680, 2251, 2771, 3371, 3789]",13.04687,0.0,2895.2550000030315,-13.04687,True,2,2,61,6,0,0,17.0,0.9149811520628217,46.03931256236699,42.90667757186711,-14.328594667598614,0.0321971231334304
10,7,652,2,1,True,"[74, 74, 74, 74]","[539, 1139, 1739, 2389]",37.72798,45.0,2998.6750000024913,7.272019999999998,True,2,2,62,6,0,0,17.0,0.9149811520628217,46.03931256236699,42.90667757186711,9.491717218818792,0.005229188721641539
10,4,329,5,2,True,"[74, 74]","[520, 1069]",87.0672,100.0,3842.9749999996275,12.9328,True,2,2,63,6,0,0,17.0,0.9149811520628217,46.03931256236699,42.90667757186711,22.152077971929316,0.06818523676709658
10,3,599,3,1,True,"[74, 74, 74, 74]","[640, 1200, 1749, 2349]",43.84378,47.0,2487.535000000149,3.1562199999999976,True,2,2,64,6,0,0,17.0,0.9149811520628217,46.03931256236699,42.90667757186711,6.243545699321444,0.001786192885979514
10,2,774,2,0,True,"[74, 74, 74, 74, 74]","[40, 669, 1349, 1971, 2701]",25.3549,34.0,2523.4549999950686,8.6451,True,2,2,65,6,0,0,17.0,0.9149811520628217,46.03931256236699,42.90667757186711,9.109472383531898,0.007900183862390199
10,4,550,3,1,True,"[74, 74, 74, 74]","[459, 1029, 1571, 2149]",50.0,50.0,2762.929999997141,0.0,True,2,2,66,6,0,0,17.0,0.9149811520628217,46.03931256236699,42.90667757186711,3.9606874376330126,0.0005640330266240139
10,5,918,1,1,True,"[74, 74]","[1240, 3499]",13.04687,36.0,1909.2449999952223,22.95313,True,2,2,67,6,0,0,17.0,0.9149811520628217,46.03931256236699,42.90667757186711,21.671405332401385,0.07537231209476318
10,3,302,5,1,True,,,93.24415,81.0,4061.154999995837,-12.244150000000005,False,1,2,68,6,0,0,17.0,0.9149811520628217,46.03931256236699,42.90667757186711,-2.148571545047318,0.002755747465444927
10,2,504,3,0,True,"[74, 74, 74]","[560, 1029, 1688]",56.30039,54.0,2793.265000000247,-2.30039,True,2,2,69,6,0,0,17.0,0.9149811520628217,46.03931256236699,42.90667757186711,2.5541077481963725,0.0001693419560760207
10,7,329,5,1,True,"[74, 74]","[400, 1048]",87.0672,68.0,2603.384999994887,-19.0672,True,2,2,70,6,0,0,17.0,0.9149811520628217,46.03931256236699,42.90667757186711,-9.847922028070684,0.020231079356246816
10,3,463,4,1,True,"[74, 74, 74, 74]","[8, 600, 1248, 1829]",62.42097,57.0,2746.0100000025705,-5.420969999999997,True,2,2,71,6,0,0,17.0,0.9149811520628217,46.03931256236699,42.90667757186711,0.3018352600567695,2.4633805322220666e-05
10,6,710,2,1,True,"[74, 74, 74]","[528, 1749, 2400]",31.58063,23.0,4953.639999999781,-8.58063,True,2,2,72,6,0,0,17.0,0.9149811520628217,46.03931256236699,42.90667757186711,-7.233032912445655,0.004398912629515116
10,4,463,4,2,True,"[74, 74, 74]","[549, 1051, 1720]",62.42097,54.0,2808.114999999758,-8.420969999999997,True,2,2,73,6,0,0,17.0,0.9149811520628217,46.03931256236699,42.90667757186711,-2.6981647399432305,0.0008330005462725315
10,3,1000,1,0,True,"[74, 74, 74, 74, 74, 74, 74]","[528, 1160, 1768, 2288, 2808, 3400, 3819]",6.87518,22.0,2671.2099999932107,15.12482,True,2,2,74,6,0,0,17.0,0.9149811520628217,46.03931256236699,42.90667757186711,12.967545650966086,0.03482634854383019
10,5,302,5,0,True,"[74, 74]","[509, 1040]",93.24415,86.0,4018.13500000583,-7.244150000000005,True,2,2,75,6,0,0,17.0,0.9149811520628217,46.03931256236699,42.90667757186711,2.851428454952682,0.0003311456438283099
10,7,1000,1,1,True,"[74, 74, 74, 74, 74, 74, 74]","[459, 1139, 1749, 2360, 2888, 3480, 4080]",6.87518,0.0,2962.909999994794,-6.87518,True,2,2,76,6,0,0,17.0,0.9149811520628217,46.03931256236699,42.90667757186711,-9.032454349033914,0.015507421539275531
10,3,774,2,1,True,"[74, 74, 74, 74, 74, 74]","[520, 1091, 1619, 2149, 2691, 3219]",25.3549,32.0,3752.6650000000373,6.645099999999999,True,2,2,77,6,0,0,17.0,0.9149811520628217,46.03931256236699,42.90667757186711,7.109472383531898,0.004764977824396543
10,2,329,5,0,True,"[74, 74]","[549, 1131]",87.0672,70.0,2956.7099999985658,-17.0672,True,2,2,78,6,0,0,17.0,0.9149811520628217,46.03931256236699,42.90667757186711,-7.847922028070684,0.01369509860416213
10,4,652,2,0,True,"[74, 74, 74, 74]","[589, 1229, 1811, 2371]",37.72798,44.0,4558.584999998799,6.272019999999998,True,2,2,79,6,0,0,17.0,0.9149811520628217,46.03931256236699,42.90667757186711,8.491717218818792,0.004140712628752403
10,2,390,4,1,True,"[74, 74, 74, 74]","[29, 629, 1120, 1661]",74.79787,64.0,2852.944999998668,-10.797870000000003,True,2,2,80,6,0,0,17.0,0.9149811520628217,46.03931256236699,42.90667757186711,-3.319200875198078,0.0019975662094495997
10,6,358,5,2,True,"[74, 74]","[621, 1240]",80.9736,61.0,5002.834999999264,-19.973600000000005,True,2,2,81,6,0,0,17.0,0.9149811520628217,46.03931256236699,42.90667757186711,-11.618799267613781,0.020992960092803117
10,5,425,4,1,True,"[74, 74, 74]","[40, 680, 1200]",68.59844,55.0,2951.8450000032317,-13.598439999999997,True,2,2,82,6,0,0,17.0,0.9149811520628217,46.03931256236699,42.90667757186711,-6.999256960510806,0.005053999389784172
10,7,504,3,1,True,[74],[731],56.30039,54.0,3581.7549999991897,-2.30039,True,2,2,83,6,0,0,17.0,0.9149811520628217,46.03931256236699,42.90667757186711,2.5541077481963725,0.0001693419560760207
10,2,918,1,2,True,[74],[3469],13.04687,37.0,4963.505000007106,23.95313,True,2,2,84,6,0,0,17.0,0.9149811520628217,46.03931256236699,42.90667757186711,22.671405332401385,0.08245547888666843
10,5,599,3,0,True,"[74, 74]","[1109, 2331]",43.84378,50.0,1561.6599999994505,6.156219999999998,True,2,2,85,6,0,0,17.0,0.9149811520628217,46.03931256236699,42.90667757186711,9.243545699321444,0.0041591330187635825
10,4,843,1,2,True,"[74, 74, 74, 74]","[0, 571, 1160, 1741]",19.19495,39.0,1808.5900000007823,19.80505,True,2,2,86,6,0,0,17.0,0.9149811520628217,46.03931256236699,42.90667757186711,19.395534933961166,0.047052232086150496
10,6,463,4,2,True,[74],[619],62.42097,55.0,2731.079999997746,-7.420969999999997,True,2,2,87,6,0,0,17.0,0.9149811520628217,46.03931256236699,42.90667757186711,-1.6981647399432305,0.000436625307115355
10,5,652,2,1,True,[74],[520],37.72798,42.0,2813.4599999976344,4.272019999999998,True,2,2,88,6,0,0,17.0,0.9149811520628217,46.03931256236699,42.90667757186711,6.491717218818792,0.0023443848908953416
10,6,599,3,1,True,[74],[1669],43.84378,50.0,6019.750000006519,6.156219999999998,True,2,2,89,6,0,0,17.0,0.9149811520628217,46.03931256236699,42.90667757186711,9.243545699321444,0.0041591330187635825
10,7,425,4,2,True,"[74, 74, 74]","[541, 1131, 1629]",68.59844,60.0,2264.7199999992736,-8.598439999999997,True,2,2,90,6,0,0,17.0,0.9149811520628217,46.03931256236699,42.90667757186711,-1.999256960510806,0.0007261871921274386
11,5,358,5,1,False,,,80.9736,92.0,6407.110000000102,11.026399999999995,False,0,0,1,6,0,0,25.0,0.9426785420596022,53.155989578768256,50.9934189058318,7.25501363646724,0.0062475994286566375
11,4,1000,1,0,False,,,6.87518,0.0,8186.855000000389,-6.87518,False,0,0,2,6,0,0,25.0,0.9426785420596022,53.155989578768256,50.9934189058318,-9.174345460544883,0.021328948422096955
11,6,710,2,0,False,,,31.58063,9.0,7190.099999999802,-22.58063,False,0,0,3,6,0,0,25.0,0.9426785420596022,53.155989578768256,50.9934189058318,-25.37065626599624,0.05988376781665043
11,4,425,4,1,False,,,68.59844,97.0,4828.02499999979,28.401560000000003,False,0,0,4,6,0,0,25.0,0.9426785420596022,53.155989578768256,50.9934189058318,24.876050736048498,0.05251262949992905
11,3,710,2,0,False,,,31.58063,40.0,6225.25999999966,8.41937,False,0,0,5,6,0,0,25.0,0.9426785420596022,53.155989578768256,50.9934189058318,5.629343734003761,0.0023148579171627117
11,6,843,1,0,False,,,19.19495,21.0,6233.430000000226,1.8050500000000014,False,0,0,6,6,0,0,25.0,0.9426785420596022,53.155989578768256,50.9934189058318,-0.7388925585157615,0.00022169784401797693
11,4,710,2,1,False,,,31.58063,44.0,5925.805000000284,12.41937,False,0,0,7,6,0,0,25.0,0.9426785420596022,53.155989578768256,50.9934189058318,9.629343734003761,0.00737825785597508
11,3,599,3,2,False,,,43.84378,50.0,2626.064999999944,6.156219999999998,False,0,0,8,6,0,0,25.0,0.9426785420596022,53.155989578768256,50.9934189058318,3.1225437312787108,0.0004105097132661448
11,4,302,5,2,False,,,93.24415,100.0,3267.0699999998906,6.755849999999995,False,0,0,9,6,0,0,25.0,0.9426785420596022,53.155989578768256,50.9934189058318,2.740665774719787,0.00095361473607504
11,6,390,4,2,False,,,74.79787,99.0,5562.370000000112,24.202129999999997,False,0,0,10,6,0,0,25.0,0.9426785420596022,53.155989578768256,50.9934189058318,20.553442136424565,0.04477798188235073
11,5,918,1,0,False,,,13.04687,2.0,10179.10499999969,-11.04687,False,0,0,11,6,0,0,25.0,0.9426785420596022,53.155989578768256,50.9934189058318,-13.46866413381621,0.03550387172709909
11,6,599,3,0,False,,,43.84378,50.0,3413.3750000001164,6.156219999999998,False,0,0,12,6,0,0,25.0,0.9426785420596022,53.155989578768256,50.9934189058318,3.1225437312787108,0.0004105097132661448
11,7,774,2,2,False,,,25.3549,39.0,9396.444999999832,13.6451,False,0,0,13,6,0,0,25.0,0.9426785420596022,53.155989578768256,50.9934189058318,10.978765921449838,0.012360368545370686
11,2,302,5,2,False,,,93.24415,100.0,4010.4650000003166,6.755849999999995,False,0,0,14,6,0,0,25.0,0.9426785420596022,53.155989578768256,50.9934189058318,2.740665774719787,0.00095361473607504
11,5,652,2,0,False,,,37.72798,46.0,3682.000000000233,8.272019999999998,False,0,0,15,6,0,0,25.0,0.9426785420596022,53.155989578768256,50.9934189058318,5.359852791975065,0.0016809543598771735
11,6,329,5,2,False,,,87.0672,92.0,5436.135000000359,4.9328,False,0,0,16,6,0,0,25.0,0.9426785420596022,53.155989578768256,50.9934189058318,1.0403435076191698,2.3094892822246357e-05
11,2,652,2,1,False,,,37.72798,50.0,4124.575000000303,12.272019999999998,False,0,0,17,6,0,0,25.0,0.9426785420596022,53.155989578768256,50.9934189058318,9.359852791975065,0.005641795083120962
11,5,463,4,1,False,,,62.42097,59.0,4418.355000000214,-3.420969999999997,False,0,0,18,6,0,0,25.0,0.9426785420596022,53.155989578768256,50.9934189058318,-6.823745389879193,0.004029477213257468
11,7,329,5,0,False,,,87.0672,95.0,6002.23499999987,7.9328,False,0,0,19,6,0,0,25.0,0.9426785420596022,53.155989578768256,50.9934189058318,4.04034350761917,0.0020516626180095616
11,3,463,4,0,False,,,62.42097,52.0,3275.2350000001024,-10.420969999999997,False,0,0,20,6,0,0,25.0,0.9426785420596022,53.155989578768256,50.9934189058318,-13.823745389879193,0.015174663133651713
11,2,918,1,0,False,,,13.04687,3.0,3732.5250000003725,-10.04687,False,0,0,21,6,0,0,25.0,0.9426785420596022,53.155989578768256,50.9934189058318,-12.46866413381621,0.030597822848996873
11,7,599,3,0,False,,,43.84378,53.0,3259.054999999935,9.156219999999998,False,0,0,22,6,0,0,25.0,0.9426785420596022,53.155989578768256,50.9934189058318,6.122543731278711,0.0019413888918752781
11,2,463,4,1,False,,,62.42097,56.0,4400.520000000135,-6.420969999999997,False,0,0,23,6,0,0,25.0,0.9426785420596022,53.155989578768256,50.9934189058318,-9.823745389879193,0.007932933060245664
11,4,599,3,2,False,,,43.84378,50.0,1594.2500000001164,6.156219999999998,False,0,0,24,6,0,0,25.0,0.9426785420596022,53.155989578768256,50.9934189058318,3.1225437312787108,0.0004105097132661448
11,7,390,4,1,False,,,74.79787,84.0,4183.980000000214,9.202129999999997,False,0,0,25,6,0,0,25.0,0.9426785420596022,53.155989578768256,50.9934189058318,5.5534421364245645,0.002716541817032556
11,5,599,3,2,False,,,43.84378,50.0,2660.5449999996927,6.156219999999998,False,0,0,26,6,0,0,25.0,0.9426785420596022,53.155989578768256,50.9934189058318,3.1225437312787108,0.0004105097132661448
11,7,1000,1,1,False,,,6.87518,0.0,2315.8600000001024,-6.87518,False,0,0,27,6,0,0,25.0,0.9426785420596022,53.155989578768256,50.9934189058318,-9.174345460544883,0.021328948422096948
11,3,329,5,1,False,,,87.0672,100.0,3766.3549999997485,12.9328,False,0,0,28,6,0,0,25.0,0.9426785420596022,53.155989578768256,50.9934189058318,9.04034350761917,0.012718853759113823
11,2,550,3,1,False,,,50.0,50.0,4130.47499999986,0.0,False,0,0,29,6,0,0,25.0,0.9426785420596022,53.155989578768256,50.9934189058318,-3.1559895787682564,0.0008343503824745911
11,3,1000,1,2,False,,,6.87518,19.0,3251.965000000433,12.12482,False,0,0,30,6,0,0,25.0,0.9426785420596022,53.155989578768256,50.9934189058318,9.825654539455117,0.020073223383864625
11,5,302,5,2,False,,,93.24415,100.0,2450.600000000093,6.755849999999995,False,0,1,31,6,0,0,25.0,0.9426785420596022,53.155989578768256,50.9934189058318,2.740665774719787,0.00095361473607504
11,2,774,2,0,False,,,25.3549,46.0,3501.780000000028,20.6451,False,0,1,32,6,0,0,25.0,0.9426785420596022,53.155989578768256,50.9934189058318,17.97876592144984,0.03444059296573394
11,5,843,1,2,False,,,19.19495,41.0,4939.16500000027,21.80505,False,0,1,33,6,0,0,25.0,0.9426785420596022,53.155989578768256,50.9934189058318,19.26110744148424,0.05060425597452485
11,2,329,5,1,False,,,87.0672,87.0,3008.1949999998324,-0.0671999999999997,False,0,1,34,6,0,0,25.0,0.9426785420596022,53.155989578768256,50.9934189058318,-3.95965649238083,0.003928393616635456
11,5,390,4,0,False,,,74.79787,78.0,2588.2750000000233,3.202129999999997,False,0,1,35,6,0,0,25.0,0.9426785420596022,53.155989578768256,50.9934189058318,-0.4465578635754355,0.00013629622439929342
11,6,774,2,2,False,,,25.3549,48.0,5124.955000000191,22.6451,False,0,1,36,6,0,0,25.0,0.9426785420596022,53.155989578768256,50.9934189058318,19.97876592144984,0.04278287612577473
