experiment,subject,pitch,ioi,tempo,tempo_range,loudness,tap_condition,key_press,tap_times,true_score,response,rt,error,tapped,tap_type,block,trial,test_correct,test_incorrect,test_skipped,extreme_responses,pearsonr,intercept,slope,residual,illusory_tempo,cooks
ITLT,2,7,302,198.67549668874173,5,2,True,"[74, 74, 74, 74, 74]","[341, 683, 907, 1157, 1403]",93.24415345434716,86.0,4031.6400000010617,-7.244153454347156,True,2,0,1,6,0,0,18.0,0.9341539872436123,48.9894656131963,39.722489497844585,2.6552257581340086,4.742314854363743,0.0001387693144752104
ITLT,2,4,463,129.58963282937364,4,1,True,"[74, 74, 74, 74, 74]","[384, 864, 1211, 1584, 2005]",62.42097125758927,71.0,4149.534999975003,8.579028742410728,True,2,0,2,6,0,0,18.0,0.9341539872436123,48.9894656131963,39.722489497844585,12.142696380151314,23.60081033380587,0.011338841098762908
ITLT,2,6,358,167.5977653631285,5,2,True,"[74, 74, 74, 74]","[320, 576, 869, 1243]",80.97360155738828,85.0,2671.2899999693036,4.026398442611722,True,2,0,3,6,0,0,18.0,0.9341539872436123,48.9894656131963,39.722489497844585,11.403563135328127,22.016882573913914,0.01818497522217038
ITLT,2,3,599,100.1669449081803,3,0,True,"[74, 74, 74, 74]","[288, 917, 1451, 2085]",43.84378078116181,29.0,2807.3800000129268,-14.843780781161811,True,2,0,4,6,0,0,18.0,0.9341539872436123,48.9894656131963,39.722489497844585,-15.098658547861724,-23.16175525625528,0.022511889784456212
ITLT,2,4,358,167.5977653631285,5,1,True,"[74, 74, 74, 74]","[651, 939, 1136, 1397]",80.97360155738828,80.0,2564.5450000301935,-0.9736015573882781,True,2,0,5,6,0,0,18.0,0.9341539872436123,48.9894656131963,39.722489497844585,6.4035631353281275,11.822266941153492,0.0042063135519457995
ITLT,2,6,918,65.359477124183,1,2,True,"[74, 74, 74]","[368, 651, 2197]",13.046873249910696,7.0,2396.920000028331,-6.046873249910696,True,2,0,6,6,0,0,18.0,0.9341539872436123,48.9894656131963,39.722489497844585,-12.63206182833746,-19.782317532250495,0.04322574574130021
ITLT,2,5,358,167.5977653631285,5,0,True,"[74, 74, 74, 74]","[336, 832, 1179, 1552]",80.97360155738828,93.0,3121.4200000395067,12.026398442611722,True,2,0,7,6,0,0,18.0,0.9341539872436123,48.9894656131963,39.722489497844585,19.403563135328127,40.29640320748218,0.06093225965158945
ITLT,2,6,390,153.84615384615384,4,1,True,"[74, 74, 74, 74]","[288, 715, 1019, 1408]",74.79787473312055,65.0,2999.690000026021,-9.797874733120551,True,2,0,8,6,0,0,18.0,0.9341539872436123,48.9894656131963,39.722489497844585,-3.690131986301239,-6.236248564918813,0.004406215475549792
ITLT,2,3,774,77.51937984496124,2,0,True,"[74, 74, 74]","[549, 1877, 2731]",25.354902613380577,19.0,2457.2799999732524,-6.3549026133805775,True,2,0,9,6,0,0,18.0,0.9341539872436123,48.9894656131963,39.722489497844585,-10.410173170929362,-16.611087796344098,0.01927125125004109
ITLT,2,5,463,129.58963282937364,4,1,True,"[74, 74, 74, 74]","[421, 800, 1147, 1568]",62.42097125758927,75.0,2576.7699999851175,12.579028742410728,True,2,0,10,6,0,0,18.0,0.9341539872436123,48.9894656131963,39.722489497844585,16.142696380151314,32.53623341971627,0.0214001029221541
ITLT,2,2,843,71.17437722419929,1,1,True,"[74, 74, 74]","[283, 805, 1957]",19.194949373496982,21.0,2122.8050000499934,1.805050626503018,True,2,0,11,6,0,0,18.0,0.9341539872436123,48.9894656131963,39.722489497844585,-3.516399613359564,-5.95156447582611,0.0034394137048590636
ITLT,2,3,390,153.84615384615384,4,2,True,"[74, 74, 74, 74]","[331, 752, 1040, 1397]",74.79787473312055,67.0,2716.599999985192,-7.797874733120551,True,2,0,12,6,0,0,18.0,0.9341539872436123,48.9894656131963,39.722489497844585,-1.690131986301239,-2.906171079116298,0.0017281355663947876
ITLT,2,5,1000,60.0,1,0,True,"[74, 74, 74]","[363, 747, 2229]",6.875176187496734,28.0,2079.0999999735504,21.124823812503266,True,2,0,13,6,0,0,18.0,0.9341539872436123,48.9894656131963,39.722489497844585,13.271041606574876,26.05854398276217,0.05124849160222127
ITLT,2,2,774,77.51937984496124,2,0,True,"[74, 74, 74]","[395, 1397, 2181]",25.354902613380577,34.0,9287.21499996027,8.645097386619423,True,2,0,14,6,0,0,18.0,0.9341539872436123,48.9894656131963,39.722489497844585,4.589826829070638,8.338596819109835,0.00222644356935138
ITLT,2,3,918,65.359477124183,1,0,True,"[74, 74]","[373, 1291]",13.046873249910696,29.0,2084.3800000147894,15.953126750089304,True,2,0,15,6,0,0,18.0,0.9341539872436123,48.9894656131963,39.722489497844585,9.36793817166254,17.75877908974567,0.019221915074767622
ITLT,2,5,710,84.50704225352112,2,0,True,"[74, 74, 74, 74, 74]","[235, 891, 1717, 2400, 3024]",31.580629700998873,36.0,5267.005000030622,4.419370299001127,True,2,0,16,6,0,0,18.0,0.9341539872436123,48.9894656131963,39.722489497844585,1.6437992519833529,2.909921629776694,6.807988446026761e-05
ITLT,2,7,463,129.58963282937364,4,0,True,"[74, 74, 74, 74]","[331, 763, 1184, 1669]",62.42097125758927,50.0,1399.0799999446608,-12.420971257589272,True,2,0,17,6,0,0,18.0,0.9341539872436123,48.9894656131963,39.722489497844585,-8.857303619848686,-14.320591214364441,0.010503312518485302
ITLT,2,2,599,100.1669449081803,3,1,True,"[74, 74, 74, 74]","[5, 821, 1397, 1904]",43.84378078116181,45.0,2786.695000017062,1.1562192188381886,True,2,0,18,6,0,0,18.0,0.9341539872436123,48.9894656131963,39.722489497844585,0.9013414521382757,1.5852514274888176,3.818074624220498e-06
ITLT,2,7,652,92.02453987730061,2,1,True,"[74, 74, 74, 74, 74]","[251, 848, 1525, 2149, 2747]",37.727982709047225,47.0,3558.1549999769777,9.272017290952775,True,2,0,19,6,0,0,18.0,0.9341539872436123,48.9894656131963,39.722489497844585,7.760035945948474,14.500685360764468,0.004518070266494496
ITLT,2,2,463,129.58963282937364,4,0,True,"[74, 74, 74, 74, 74]","[304, 773, 1120, 1552, 1952]",62.42097125758927,56.0,2505.2750000031665,-6.420971257589272,True,2,0,20,6,0,0,18.0,0.9341539872436123,48.9894656131963,39.722489497844585,-2.857303619848686,-4.863664254063672,0.0018301327998458436
ITLT,2,6,550,109.0909090909091,3,1,True,"[74, 74, 74, 74]","[341, 747, 1317, 1845]",50.0,50.0,2080.169999971986,0.0,True,2,0,21,6,0,0,18.0,0.9341539872436123,48.9894656131963,39.722489497844585,1.0105343868036982,1.7789953177096187,3.614456047358519e-06
ITLT,2,7,1000,60.0,1,1,True,"[74, 74, 74, 74, 74]","[309, 661, 1392, 2251, 3275]",6.875176187496734,28.0,2127.919999998994,21.124823812503266,True,2,0,22,6,0,0,18.0,0.9341539872436123,48.9894656131963,39.722489497844585,13.271041606574876,26.05854398276217,0.05124849160222127
ITLT,2,4,774,77.51937984496124,2,1,True,"[74, 74, 74, 74]","[352, 869, 1947, 2715]",25.354902613380577,33.0,2526.025000028312,7.6450973866194225,True,2,0,23,6,0,0,18.0,0.9341539872436123,48.9894656131963,39.722489497844585,3.5898268290706383,6.464514966491466,0.001209982020944032
ITLT,2,7,599,100.1669449081803,3,0,True,"[74, 74, 74, 74]","[299, 987, 1397, 2016]",43.84378078116181,50.0,976.4350000186823,6.156219218838189,True,2,0,24,6,0,0,18.0,0.9341539872436123,48.9894656131963,39.722489497844585,5.901341452138276,10.846578536923754,0.001964508157872224
ITLT,2,6,652,92.02453987730061,2,2,True,"[74, 74, 74, 74]","[240, 757, 1467, 2165]",37.727982709047225,50.0,2776.9049999769777,12.272017290952775,True,2,0,25,6,0,0,18.0,0.9341539872436123,48.9894656131963,39.722489497844585,10.760035945948474,20.65437263117577,0.009421444784589509
ITLT,2,4,550,109.0909090909091,3,2,True,"[74, 74, 74, 74, 74]","[272, 880, 1365, 1856, 2379]",50.0,50.0,1086.684999987483,0.0,True,2,0,26,6,0,0,18.0,0.9341539872436123,48.9894656131963,39.722489497844585,1.0105343868036982,1.7789953177096187,3.614456047358519e-06
ITLT,2,2,358,167.5977653631285,5,0,True,"[74, 74, 74]","[363, 757, 1456]",80.97360155738828,62.0,2597.7399999974295,-18.973601557388278,True,2,0,27,6,0,0,18.0,0.9341539872436123,48.9894656131963,39.722489497844585,-11.596436864671873,-18.31949485228435,0.03501688407204827
ITLT,2,4,1000,60.0,1,2,True,"[74, 74]","[187, 672]",6.875176187496734,26.0,2097.3349999985658,19.124823812503266,True,2,0,28,6,0,0,18.0,0.9341539872436123,48.9894656131963,39.722489497844585,11.271041606574876,21.735048618786973,0.03649923720571399
ITLT,2,3,329,182.370820668693,5,2,True,"[74, 74]","[165, 704]",87.06720173383901,69.0,2256.935000012163,-18.067201733839013,True,2,0,29,6,0,0,18.0,0.9341539872436123,48.9894656131963,39.722489497844585,-9.437496244934437,-15.183651390446688,0.03174789662823414
ITLT,2,5,599,100.1669449081803,3,0,True,"[74, 74, 74, 74]","[48, 613, 1269, 1877]",43.84378078116181,50.0,464.50499998172745,6.156219218838189,True,2,0,30,6,0,0,18.0,0.9341539872436123,48.9894656131963,39.722489497844585,5.901341452138276,10.846578536923754,0.001964508157872224
ITLT,2,7,358,167.5977653631285,5,0,True,"[74, 74, 74]","[240, 677, 1008]",80.97360155738828,61.0,2584.310000005644,-19.973601557388278,True,2,1,31,6,0,0,18.0,0.9341539872436123,48.9894656131963,39.722489497844585,-12.596436864671873,-19.732434994619993,0.040452112139892867
ITLT,2,2,390,153.84615384615384,4,2,True,,,74.79787473312055,63.0,2852.3799999966286,-11.797874733120551,False,1,1,32,6,0,0,18.0,0.9341539872436123,48.9894656131963,39.722489497844585,-5.690131986301239,-9.452112653384958,0.008315216766661727
ITLT,2,4,652,92.02453987730061,2,0,True,,,37.727982709047225,35.0,3074.6799999615178,-2.7279827090472253,False,1,1,33,6,0,0,18.0,0.9341539872436123,48.9894656131963,39.722489497844585,-4.239964054051526,-7.1315562345034795,0.0027220790822343206
ITLT,2,2,329,182.370820668693,5,2,True,,,87.06720173383901,79.0,2800.0400000019,-8.067201733839013,False,1,1,34,6,0,0,18.0,0.9341539872436123,48.9894656131963,39.722489497844585,0.5625037550655634,0.9863875683515938,0.0004295028073284937
ITLT,2,3,425,141.1764705882353,4,1,True,,,68.5984388693479,67.0,2895.6149999867193,-1.598438869347902,False,1,1,35,6,0,0,18.0,0.9341539872436123,48.9894656131963,39.722489497844585,3.235008533524173,5.807377670193766,0.0003447902380401864
ITLT,2,5,843,71.17437722419929,1,1,True,,,19.194949373496982,24.0,2181.7300000111572,4.805050626503018,False,1,1,36,6,0,0,18.0,0.9341539872436123,48.9894656131963,39.722489497844585,-0.5163996133595639,-0.8970562109740625,0.00027805937064142076
ITLT,2,6,463,129.58963282937364,4,0,True,,,62.42097125758927,50.0,1563.4350000182167,-12.420971257589272,False,1,1,37,6,0,0,18.0,0.9341539872436123,48.9894656131963,39.722489497844585,-8.857303619848686,-14.320591214364441,0.010503312518485302
ITLT,2,2,1000,60.0,1,0,True,,,6.875176187496734,24.0,1864.4600000116043,17.124823812503266,False,1,1,38,6,0,0,18.0,0.9341539872436123,48.9894656131963,39.722489497844585,9.271041606574876,17.559838421145837,0.02424690394920917
ITLT,2,4,390,153.84615384615384,4,0,True,,,74.79787473312055,63.0,2682.5499999686144,-11.797874733120551,False,1,1,39,6,0,0,18.0,0.9341539872436123,48.9894656131963,39.722489497844585,-5.690131986301239,-9.452112653384958,0.008315216766661727
ITLT,2,3,1000,60.0,1,1,True,,,6.875176187496734,19.0,2225.1149999792688,12.124823812503266,False,1,1,40,6,0,0,18.0,0.9341539872436123,48.9894656131963,39.722489497844585,4.271041606574876,7.737612666222091,0.004540100795457933
ITLT,2,2,710,84.50704225352112,2,1,True,,,31.580629700998873,42.0,5242.440000001807,10.419370299001127,False,1,1,41,6,0,0,18.0,0.9341539872436123,48.9894656131963,39.722489497844585,7.643799251983353,14.268678957082589,0.005531022929582747
ITLT,2,6,302,198.67549668874173,5,0,True,,,93.24415345434716,74.0,2613.8999999966472,-19.244153454347156,False,1,1,42,6,0,0,18.0,0.9341539872436123,48.9894656131963,39.722489497844585,-9.344774241865991,-15.04630958083669,0.0400614505394306
ITLT,2,3,504,119.04761904761905,3,1,True,,,56.30039424560527,50.0,574.289999960456,-6.300394245605268,False,1,1,43,6,0,0,18.0,0.9341539872436123,48.9894656131963,39.722489497844585,-3.994812498263016,-6.733429745226095,0.002432117752840447
ITLT,2,4,918,65.359477124183,1,1,True,,,13.046873249910696,27.0,2386.0449999920093,13.953126750089304,False,1,1,44,6,0,0,18.0,0.9341539872436123,48.9894656131963,39.722489497844585,7.367938171662541,13.719945073611747,0.011478652150605572
ITLT,2,3,710,84.50704225352112,2,1,True,,,31.580629700998873,30.0,3368.6649999581277,-1.5806297009988732,False,1,1,45,6,0,0,18.0,0.9341539872436123,48.9894656131963,39.722489497844585,-4.356200748016647,-7.319730423904007,0.0033487910966252046
ITLT,2,5,550,109.0909090909091,3,2,True,,,50.0,50.0,602.7600000379607,0.0,False,1,1,46,6,0,0,18.0,0.9341539872436123,48.9894656131963,39.722489497844585,1.0105343868036982,1.7789953177096187,3.614456047358519e-06
ITLT,2,7,710,84.50704225352112,2,2,True,,,31.580629700998873,44.0,2187.5399999553338,12.419370299001127,False,1,1,47,6,0,0,18.0,0.9341539872436123,48.9894656131963,39.722489497844585,9.643799251983353,18.327001595664704,0.00929503822402078
ITLT,2,6,843,71.17437722419929,1,1,True,,,19.194949373496982,32.0,2064.364999998361,12.805050626503018,False,1,1,48,6,0,0,18.0,0.9341539872436123,48.9894656131963,39.722489497844585,7.483600386640436,13.949695055117955,0.009072301098755068
ITLT,2,2,504,119.04761904761905,3,0,True,,,56.30039424560527,50.0,485.3199999779463,-6.300394245605268,False,1,1,49,6,0,0,18.0,0.9341539872436123,48.9894656131963,39.722489497844585,-3.994812498263016,-6.733429745226095,0.002432117752840447
ITLT,2,6,710,84.50704225352112,2,0,True,,,31.580629700998873,29.0,1660.3549999999814,-2.5806297009988732,False,1,1,50,6,0,0,18.0,0.9341539872436123,48.9894656131963,39.722489497844585,-5.356200748016647,-8.922948634292567,0.004745653795888972
ITLT,2,7,504,119.04761904761905,3,1,True,,,56.30039424560527,50.0,740.3700000140816,-6.300394245605268,False,1,1,51,6,0,0,18.0,0.9341539872436123,48.9894656131963,39.722489497844585,-3.994812498263016,-6.733429745226095,0.002432117752840447
ITLT,2,3,358,167.5977653631285,5,0,True,,,80.97360155738828,82.0,2053.0000000144355,1.0263984426117219,False,1,1,52,6,0,0,18.0,0.9341539872436123,48.9894656131963,39.722489497844585,8.403563135328127,15.793703747518398,0.008621926734051415
ITLT,2,4,504,119.04761904761905,3,0,True,,,56.30039424560527,50.0,363.1300000124611,-6.300394245605268,False,1,1,53,6,0,0,18.0,0.9341539872436123,48.9894656131963,39.722489497844585,-3.994812498263016,-6.733429745226095,0.002432117752840447
ITLT,2,5,329,182.370820668693,5,1,True,,,87.06720173383901,78.0,2816.7199999443255,-9.067201733839013,False,1,1,54,6,0,0,18.0,0.9341539872436123,48.9894656131963,39.722489497844585,-0.4374962449344366,-0.7605129994980241,0.0013300568158385348
ITLT,2,6,599,100.1669449081803,3,0,True,,,43.84378078116181,50.0,875.0399999553338,6.156219218838189,False,1,1,55,6,0,0,18.0,0.9341539872436123,48.9894656131963,39.722489497844585,5.901341452138276,10.846578536923754,0.001964508157872224
ITLT,2,4,329,182.370820668693,5,0,True,,,87.06720173383901,73.0,1627.7899999986403,-14.067201733839013,False,1,1,56,6,0,0,18.0,0.9341539872436123,48.9894656131963,39.722489497844585,-5.437496244934437,-9.052057613822862,0.01327044477032382
ITLT,2,5,390,153.84615384615384,4,2,True,,,74.79787473312055,72.0,1829.410000005737,-2.797874733120551,False,1,1,57,6,0,0,18.0,0.9341539872436123,48.9894656131963,39.722489497844585,3.309868013698761,5.9456818946953405,0.0004182168395688538
ITLT,2,7,918,65.359477124183,1,0,True,,,13.046873249910696,13.0,2482.959999993909,-0.0468732499106963,False,1,1,58,6,0,0,18.0,0.9341539872436123,48.9894656131963,39.722489497844585,-6.632061828337459,-10.928232580286053,0.012858216032468022
ITLT,2,5,652,92.02453987730061,2,1,True,,,37.727982709047225,37.0,2289.74500001641,-0.7279827090472253,False,1,1,59,6,0,0,18.0,0.9341539872436123,48.9894656131963,39.722489497844585,-2.2399640540515264,-3.833276153004009,0.0010416879587088089
ITLT,2,7,425,141.1764705882353,4,2,True,,,68.5984388693479,66.0,1717.8249999997206,-2.598438869347902,False,1,1,60,6,0,0,18.0,0.9341539872436123,48.9894656131963,39.722489497844585,2.235008533524173,3.977081799776223,5.6853538618368716e-05
ITLT,2,2,918,65.359477124183,1,2,True,,,13.046873249910696,16.0,1526.3300000224262,2.9531267500893037,False,1,2,61,6,0,0,18.0,0.9341539872436123,48.9894656131963,39.722489497844585,-3.6320618283374593,-6.141188733371624,0.004374115988216721
ITLT,2,3,463,129.58963282937364,4,0,True,,,62.42097125758927,58.0,2119.025000021793,-4.420971257589272,False,1,2,62,6,0,0,18.0,0.9341539872436123,48.9894656131963,39.722489497844585,-0.8573036198486861,-1.4848385895568317,0.0005234110572144405
ITLT,2,5,774,77.51937984496124,2,2,True,,,25.354902613380577,32.0,1301.7450000043027,6.6450973866194225,False,1,2,63,6,0,0,18.0,0.9341539872436123,48.9894656131963,39.722489497844585,2.5898268290706383,4.622851687617206,0.0005010607668871596
ITLT,2,2,425,141.1764705882353,4,1,True,,,68.5984388693479,72.0,2213.820000004489,3.401561130652098,False,1,2,64,6,0,0,18.0,0.9341539872436123,48.9894656131963,39.722489497844585,8.235008533524173,15.453627705757729,0.005433241671112255
ITLT,2,6,1000,60.0,1,0,True,,,6.875176187496734,5.0,1385.0200000451878,-1.8751761874967343,False,1,2,65,6,0,0,18.0,0.9341539872436123,48.9894656131963,39.722489497844585,-9.728958393425124,-15.613927077179332,0.03238367987003669
ITLT,2,2,652,92.02453987730061,2,2,True,,,37.727982709047225,32.0,1530.9899999992922,-5.727982709047225,False,1,2,66,6,0,0,18.0,0.9341539872436123,48.9894656131963,39.722489497844585,-7.239964054051526,-11.868088759268197,0.0067274580081992455
ITLT,2,6,504,119.04761904761905,3,2,True,,,56.30039424560527,50.0,316.9050000142306,-6.300394245605268,False,1,2,67,6,0,0,18.0,0.9341539872436123,48.9894656131963,39.722489497844585,-3.994812498263016,-6.733429745226095,0.002432117752840447
ITLT,2,3,843,71.17437722419929,1,2,True,,,19.194949373496982,23.0,1546.7700000153854,3.805050626503018,False,1,2,68,6,0,0,18.0,0.9341539872436123,48.9894656131963,39.722489497844585,-1.5163996133595639,-2.6113762589452874,0.0009403777861527403
ITLT,2,6,425,141.1764705882353,4,2,True,,,68.5984388693479,85.0,6645.9000000031665,16.401561130652098,False,1,2,69,6,0,0,18.0,0.9341539872436123,48.9894656131963,39.722489497844585,21.235008533524173,44.852444396406185,0.047123605297610865
ITLT,2,7,774,77.51937984496124,2,0,True,,,25.354902613380577,24.0,1756.6500000539236,-1.3549026133805775,False,1,2,70,6,0,0,18.0,0.9341539872436123,48.9894656131963,39.722489497844585,-5.410173170929362,-9.008685062033118,0.005901141331049301
ITLT,2,6,329,182.370820668693,5,1,True,,,87.06720173383901,97.0,2046.5650000260212,9.932798266160987,False,1,2,71,6,0,0,18.0,0.9341539872436123,48.9894656131963,39.722489497844585,18.562503755065563,38.252411241445564,0.06900837485020767
ITLT,2,7,843,71.17437722419929,1,2,True,,,19.194949373496982,32.0,1391.5549999801442,12.805050626503018,False,1,2,72,6,0,0,18.0,0.9341539872436123,48.9894656131963,39.722489497844585,7.483600386640436,13.949695055117955,0.009072301098755068
ITLT,2,2,550,109.0909090909091,3,2,True,,,50.0,50.0,311.47000001510605,0.0,False,1,2,73,6,0,0,18.0,0.9341539872436123,48.9894656131963,39.722489497844585,1.0105343868036982,1.7789953177096187,3.614456047358519e-06
ITLT,2,7,329,182.370820668693,5,1,True,,,87.06720173383901,89.0,2136.2450000015087,1.9327982661609866,False,1,2,74,6,0,0,18.0,0.9341539872436123,48.9894656131963,39.722489497844585,10.562503755065563,20.23920672478271,0.018695228399323378
ITLT,2,5,425,141.1764705882353,4,0,True,,,68.5984388693479,56.0,2480.4399999557063,-12.598438869347902,False,1,2,75,6,0,0,18.0,0.9341539872436123,48.9894656131963,39.722489497844585,-7.764991466475827,-12.671830038827355,0.010556302309597783
ITLT,2,3,550,109.0909090909091,3,2,True,,,50.0,50.0,375.54999999701977,0.0,False,1,2,76,6,0,0,18.0,0.9341539872436123,48.9894656131963,39.722489497844585,1.0105343868036982,1.7789953177096187,3.614456047358519e-06
ITLT,2,5,918,65.359477124183,1,2,True,,,13.046873249910696,22.0,1301.1249999981374,8.953126750089304,False,1,2,77,6,0,0,18.0,0.9341539872436123,48.9894656131963,39.722489497844585,2.3679381716625407,4.218545715192543,0.0008052455200436979
ITLT,2,4,599,100.1669449081803,3,1,True,,,43.84378078116181,38.0,4495.969999989029,-5.843780781161811,False,1,2,78,6,0,0,18.0,0.9341539872436123,48.9894656131963,39.722489497844585,-6.098658547861724,-10.09530455630395,0.004454421952133416
ITLT,2,5,302,198.67549668874173,5,2,True,,,93.24415345434716,97.0,1837.9800000111572,3.755846545652844,False,1,2,79,6,0,0,18.0,0.9341539872436123,48.9894656131963,39.722489497844585,13.655225758134009,26.90646867755792,0.042457637359493136
ITLT,2,7,390,153.84615384615384,4,1,True,,,74.79787473312055,93.0,1861.6599999950267,18.20212526687945,False,1,2,80,6,0,0,18.0,0.9341539872436123,48.9894656131963,39.722489497844585,24.30986801369876,52.83686382938004,0.07892694250546055
ITLT,2,5,504,119.04761904761905,3,1,True,,,56.30039424560527,50.0,349.31499999947846,-6.300394245605268,False,1,2,81,6,0,0,18.0,0.9341539872436123,48.9894656131963,39.722489497844585,-3.994812498263016,-6.733429745226095,0.002432117752840447
ITLT,2,4,302,198.67549668874173,5,2,True,,,93.24415345434716,86.0,1640.1499999919906,-7.244153454347156,False,1,2,82,6,0,0,18.0,0.9341539872436123,48.9894656131963,39.722489497844585,2.6552257581340086,4.742314854363743,0.00013876931447521026
ITLT,2,7,550,109.0909090909091,3,2,True,,,50.0,50.0,65.89999998686835,0.0,False,1,2,83,6,0,0,18.0,0.9341539872436123,48.9894656131963,39.722489497844585,1.0105343868036982,1.7789953177096187,3.614456047358519e-06
ITLT,2,3,302,198.67549668874173,5,1,True,,,93.24415345434716,89.0,1470.0050000101328,-4.244153454347156,False,1,2,84,6,0,0,18.0,0.9341539872436123,48.9894656131963,39.722489497844585,5.655225758134009,10.371551461654636,0.004194303208059351
ITLT,2,4,843,71.17437722419929,1,0,True,,,19.194949373496982,13.0,1156.6200000233948,-6.194949373496982,False,1,2,85,6,0,0,18.0,0.9341539872436123,48.9894656131963,39.722489497844585,-11.516399613359564,-18.205337761635242,0.029094211882133462
ITLT,2,6,774,77.51937984496124,2,1,True,,,25.354902613380577,34.0,2520.5300000379793,8.645097386619423,False,1,2,86,6,0,0,18.0,0.9341539872436123,48.9894656131963,39.722489497844585,4.589826829070638,8.338596819109835,0.00222644356935138
ITLT,2,4,425,141.1764705882353,4,2,True,,,68.5984388693479,69.0,2310.529999958817,0.4015611306520981,False,1,2,87,6,0,0,18.0,0.9341539872436123,48.9894656131963,39.722489497844585,5.235008533524173,9.565191972827211,0.0016504172240764182
ITLT,2,3,652,92.02453987730061,2,2,True,,,37.727982709047225,27.0,1957.2749999933876,-10.727982709047225,False,1,2,88,6,0,0,18.0,0.9341539872436123,48.9894656131963,39.722489497844585,-12.239964054051526,-19.231585851857457,0.01736253552661187
ITLT,2,2,302,198.67549668874173,5,1,True,,,93.24415345434716,83.0,2509.805000037886,-10.244153454347156,False,1,2,89,6,0,0,18.0,0.9341539872436123,48.9894656131963,39.722489497844585,-0.34477424186599137,-0.5998160235864564,0.0016977171008202654
ITLT,2,4,710,84.50704225352112,2,2,True,,,31.580629700998873,27.0,1691.484999959357,-4.580629700998873,False,1,2,90,6,0,0,18.0,0.9341539872436123,48.9894656131963,39.722489497844585,-7.356200748016647,-12.046665574875448,0.008268017049190453
ITLT,3,2,358,167.5977653631285,5,1,True,"[74, 74, 74]","[43, 597, 1168]",80.97360155738828,71.0,5319.939999841154,-9.973601557388278,True,2,0,1,6,0,0,19.0,0.9574962769660927,52.35400783509264,47.9310167641012,-11.045932144928017,-14.76338442514178,0.02731543556677376
ITLT,3,5,652,92.02453987730061,2,1,True,"[74, 74, 74, 74, 74]","[64, 651, 1280, 1893, 2512]",37.727982709047225,37.0,2735.3900000452995,-0.7279827090472253,True,2,0,2,6,0,0,19.0,0.9574962769660927,52.35400783509264,47.9310167641012,-3.5898025050526883,-5.0588906614319855,0.0012739386679313151
ITLT,3,4,918,65.359477124183,1,1,True,"[74, 74, 74, 74, 74]","[69, 667, 1280, 1925, 2544]",13.046873249910696,24.0,4724.260000046343,10.953126750089304,True,2,0,3,6,0,0,19.0,0.9574962769660927,52.35400783509264,47.9310167641012,7.070010919797099,10.765137817433747,0.015662760740882842
ITLT,3,2,710,84.50704225352112,2,2,True,"[74, 74, 74, 74]","[592, 1189, 1808, 2437]",31.580629700998873,30.0,7342.699999921024,-1.5806297009988732,True,2,0,4,6,0,0,19.0,0.9574962769660927,52.35400783509264,47.9310167641012,-4.696824903380424,-6.566704929157466,0.002721676042109246
ITLT,3,5,1000,60.0,1,2,True,"[74, 74, 74, 74, 74]","[75, 656, 1312, 1963, 2523]",6.875176187496734,0.0,3972.529999911785,-6.875176187496734,True,2,0,5,6,0,0,19.0,0.9574962769660927,52.35400783509264,47.9310167641012,-11.013674772972543,-14.723613536191635,0.0401208954223381
ITLT,3,6,774,77.51937984496124,2,0,True,"[74, 74, 74, 74]","[592, 1131, 1765, 2373]",25.354902613380577,25.0,7432.52500006929,-0.3549026133805775,True,2,0,6,6,0,0,19.0,0.9574962769660927,52.35400783509264,47.9310167641012,-3.7287163152733953,-5.249424621863956,0.0020637038357086573
ITLT,3,7,504,119.04761904761905,3,0,True,"[74, 74, 74, 74]","[64, 656, 1227, 1819]",56.30039424560527,56.0,3813.0349996499717,-0.3003942456052684,True,2,0,7,6,0,0,19.0,0.9574962769660927,52.35400783509264,47.9310167641012,-2.3936938792236973,-3.4023762125669195,0.0005010588557058361
ITLT,3,3,710,84.50704225352112,2,2,True,"[74, 74, 74, 74, 74]","[123, 709, 1333, 1920, 2656]",31.580629700998873,45.0,3363.79999993369,13.419370299001127,True,2,0,8,6,0,0,19.0,0.9574962769660927,52.35400783509264,47.9310167641012,10.303175096619576,16.067045315246197,0.015480330687274904
ITLT,3,4,425,141.1764705882353,4,1,True,"[74, 74, 74, 74]","[101, 667, 1205, 1787]",68.5984388693479,67.0,3623.2849997468293,-1.598438869347902,True,2,0,9,6,0,0,19.0,0.9574962769660927,52.35400783509264,47.9310167641012,-3.1828495397491423,-4.498506443096848,0.001351474622198874
ITLT,3,6,358,167.5977653631285,5,1,True,"[74, 74, 74]","[75, 651, 1211]",80.97360155738828,89.0,3233.8200001977384,8.026398442611722,True,2,0,10,6,0,0,19.0,0.9574962769660927,52.35400783509264,47.9310167641012,6.954067855071983,10.579574277459884,0.010799599240316694
ITLT,3,3,463,129.58963282937364,4,0,True,"[74, 74, 74, 74]","[69, 645, 1200, 1803]",62.42097125758927,60.0,4268.135000020266,-2.4209712575892723,True,2,0,11,6,0,0,19.0,0.9574962769660927,52.35400783509264,47.9310167641012,-4.261003466571253,-5.9759758142457535,0.0019600381557914083
ITLT,3,4,652,92.02453987730061,2,1,True,"[74, 74, 74, 74]","[75, 677, 1312, 1952]",37.727982709047225,48.0,5954.20499984175,10.272017290952775,True,2,0,12,6,0,0,19.0,0.9574962769660927,52.35400783509264,47.9310167641012,7.410197494947312,11.311395790082111,0.006597281226372824
ITLT,3,3,504,119.04761904761905,3,0,True,"[74, 74, 74, 74]","[133, 693, 1264, 1883]",56.30039424560527,53.0,4894.439999945462,-3.3003942456052684,True,2,0,13,6,0,0,19.0,0.9574962769660927,52.35400783509264,47.9310167641012,-5.393693879223697,-7.503565832033471,0.0027090660144471214
ITLT,3,6,463,129.58963282937364,4,0,True,"[74, 74, 74, 74]","[133, 731, 1280, 1787]",62.42097125758927,60.0,3357.8250003047287,-2.4209712575892723,True,2,0,14,6,0,0,19.0,0.9574962769660927,52.35400783509264,47.9310167641012,-4.261003466571253,-5.9759758142457535,0.0019600381557914083
ITLT,3,2,504,119.04761904761905,3,0,True,"[74, 74, 74, 74]","[91, 683, 1227, 1808]",56.30039424560527,50.0,1405.6249996647239,-6.300394245605268,True,2,0,15,6,0,0,19.0,0.9574962769660927,52.35400783509264,47.9310167641012,-8.393693879223697,-11.430633608380642,0.006677019889474626
ITLT,3,7,918,65.359477124183,1,0,True,"[74, 74, 74, 74, 74, 74]","[64, 635, 1280, 1952, 2507, 3056]",13.046873249910696,7.0,3030.555000063032,-6.046873249910696,True,2,0,16,6,0,0,19.0,0.9574962769660927,52.35400783509264,47.9310167641012,-9.929989080202901,-13.376672986038926,0.0258981280932543
ITLT,3,6,599,100.1669449081803,3,1,True,"[74, 74, 74, 74, 74]","[80, 688, 1285, 1899, 2533]",43.84378078116181,50.0,4390.98499994725,6.156219218838189,True,2,0,17,6,0,0,19.0,0.9574962769660927,52.35400783509264,47.9310167641012,3.5474690965396647,5.2639890249603125,0.0013716090708796459
ITLT,3,5,302,198.67549668874173,5,2,True,"[74, 74, 74]","[69, 640, 1205]",93.24415345434716,100.0,3849.3349999189377,6.755846545652844,True,2,0,18,6,0,0,19.0,0.9574962769660927,52.35400783509264,47.9310167641012,6.191267281513802,9.36646041015221,0.013327555885411546
ITLT,3,6,1000,60.0,1,0,True,"[74, 74, 74, 74, 74, 74]","[112, 677, 1323, 1931, 2480, 3040]",6.875176187496734,3.0,4908.245000056922,-3.8751761874967343,True,2,0,19,6,0,0,19.0,0.9574962769660927,52.35400783509264,47.9310167641012,-8.013674772972543,-10.942552848858575,0.020644423269058097
ITLT,3,7,710,84.50704225352112,2,0,True,"[74, 74, 74, 74, 74]","[101, 715, 1381, 1995, 2613]",31.580629700998873,43.0,3447.374999988824,11.419370299001127,True,2,0,20,6,0,0,19.0,0.9574962769660927,52.35400783509264,47.9310167641012,8.303175096619576,12.758154804840576,0.010175702832142442
ITLT,3,3,302,198.67549668874173,5,0,True,"[74, 74, 74]","[64, 661, 1184]",93.24415345434716,100.0,2384.4450004398823,6.755846545652844,True,2,0,21,6,0,0,19.0,0.9574962769660927,52.35400783509264,47.9310167641012,6.191267281513802,9.36646041015221,0.013327555885411546
ITLT,3,4,550,109.0909090909091,3,1,True,"[74, 74, 74, 74, 74]","[160, 752, 1317, 1813, 2368]",50.0,50.0,10280.259999912232,0.0,True,2,0,22,6,0,0,19.0,0.9574962769660927,52.35400783509264,47.9310167641012,-2.354007835092638,-3.346921596447129,0.00044393066580188074
ITLT,3,7,302,198.67549668874173,5,0,True,"[74, 74, 74]","[101, 699, 1291]",93.24415345434716,100.0,2133.994999807328,6.755846545652844,True,2,0,23,6,0,0,19.0,0.9574962769660927,52.35400783509264,47.9310167641012,6.191267281513802,9.36646041015221,0.013327555885411546
ITLT,3,5,463,129.58963282937364,4,2,True,"[74, 74, 74, 74]","[32, 608, 1189, 1723]",62.42097125758927,62.0,5242.839999962598,-0.42097125758927234,True,2,0,24,6,0,0,19.0,0.9574962769660927,52.35400783509264,47.9310167641012,-2.2610034665712533,-3.2168387751831578,0.0005295116720549789
ITLT,3,3,843,71.17437722419929,1,2,True,"[74, 74, 74, 74, 74, 74]","[32, 587, 1163, 1755, 2320, 2864]",19.194949373496982,26.0,4986.595000140369,6.805050626503018,True,2,0,25,6,0,0,19.0,0.9574962769660927,52.35400783509264,47.9310167641012,3.1763401248654084,4.700547841353419,0.002751491122643271
ITLT,3,5,504,119.04761904761905,3,1,True,"[74, 74, 74]","[549, 1141, 1717]",56.30039424560527,50.0,11841.179999988526,-6.300394245605268,True,2,0,26,6,0,0,19.0,0.9574962769660927,52.35400783509264,47.9310167641012,-8.393693879223697,-11.430633608380642,0.006677019889474626
ITLT,3,7,425,141.1764705882353,4,0,True,"[74, 74, 74, 74]","[59, 619, 1184, 1771]",68.5984388693479,79.0,3835.079999640584,10.401561130652098,True,2,0,27,6,0,0,19.0,0.9574962769660927,52.35400783509264,47.9310167641012,8.817150460250858,13.599383520136,0.01094480923745813
ITLT,3,2,1000,60.0,1,1,True,"[74, 74, 74, 74, 74, 74, 74]","[112, 683, 1259, 1883, 2400, 2981, 3488]",6.875176187496734,3.0,3178.209999576211,-3.8751761874967343,True,2,0,28,6,0,0,19.0,0.9574962769660927,52.35400783509264,47.9310167641012,-8.013674772972543,-10.942552848858575,0.020644423269058097
ITLT,3,4,358,167.5977653631285,5,2,True,"[74, 74, 74]","[59, 629, 1104]",80.97360155738828,88.0,5700.140000320971,7.026398442611722,True,2,0,29,6,0,0,19.0,0.9574962769660927,52.35400783509264,47.9310167641012,5.954067855071983,8.99195166815918,0.007914921722839304
ITLT,3,2,425,141.1764705882353,4,1,True,"[74, 74, 74]","[560, 1120, 1707]",68.5984388693479,60.0,4214.764999691397,-8.598438869347902,True,2,0,30,6,0,0,19.0,0.9574962769660927,52.35400783509264,47.9310167641012,-10.182849539749142,-13.692850369448056,0.014216743638622766
ITLT,3,5,390,153.84615384615384,4,0,True,"[74, 74, 74]","[101, 672, 1227]",74.79787473312055,77.0,3756.099999882281,2.202125266879449,True,2,1,31,6,0,0,19.0,0.9574962769660927,52.35400783509264,47.9310167641012,0.8742451739616968,1.2723022544482732,0.00014312771403933
ITLT,3,2,918,65.359477124183,1,0,True,"[74, 74, 74, 74, 74, 74]","[101, 635, 1205, 1813, 2299, 2853]",13.046873249910696,6.0,4100.085000041872,-7.046873249910696,True,2,1,32,6,0,0,19.0,0.9574962769660927,52.35400783509264,47.9310167641012,-10.929989080202901,-14.620348894169503,0.031597616209745105
ITLT,3,5,329,182.370820668693,5,1,True,"[74, 74, 74]","[53, 624, 1141]",87.06720173383901,97.0,3049.4949999265373,9.932798266160987,True,2,1,33,6,0,0,19.0,0.9574962769660927,52.35400783509264,47.9310167641012,9.112618810848176,14.085817532649063,0.023296635483731006
ITLT,3,3,774,77.51937984496124,2,1,True,"[74, 74, 74, 74, 74, 74]","[91, 645, 1221, 1771, 2331, 2891]",25.354902613380577,30.0,2340.224999934435,4.6450973866194225,True,2,1,34,6,0,0,19.0,0.9574962769660927,52.35400783509264,47.9310167641012,1.2712836847266047,1.8554512462424224,0.00043300873488736437
ITLT,3,7,599,100.1669449081803,3,1,True,"[74, 74, 74, 74, 74]","[69, 635, 1248, 1856, 2432]",43.84378078116181,46.0,2209.369999822229,2.1562192188381886,True,2,1,35,6,0,0,19.0,0.9574962769660927,52.35400783509264,47.9310167641012,-0.4525309034603353,-0.6522840818383792,6.324122233136216e-06
ITLT,3,3,390,153.84615384615384,4,1,True,"[74, 74, 74, 74]","[11, 587, 1099, 1664]",74.79787473312055,64.0,2500.725000165403,-10.797874733120551,True,2,1,36,6,0,0,19.0,0.9574962769660927,52.35400783509264,47.9310167641012,-12.125754826038303,-16.08407466918556,0.025697841838573147
ITLT,3,7,774,77.51937984496124,2,2,True,"[74, 74, 74, 74, 74]","[171, 757, 1360, 1979, 2480]",25.354902613380577,21.0,3433.445000089705,-4.3549026133805775,True,2,1,37,6,0,0,19.0,0.9574962769660927,52.35400783509264,47.9310167641012,-7.728716315273395,-10.574800243250003,0.009686004789800948
ITLT,3,3,329,182.370820668693,5,2,True,"[74, 74, 74]","[85, 640, 1157]",87.06720173383901,84.0,2855.8000000193715,-3.0672017338390134,True,2,1,38,6,0,0,19.0,0.9574962769660927,52.35400783509264,47.9310167641012,-3.8873811891518244,-5.466581362781359,0.004361251897369241
ITLT,3,7,1000,60.0,1,1,True,"[74, 74, 74, 74, 74, 74, 74]","[85, 651, 1179, 1717, 2288, 2853, 3339]",6.875176187496734,11.0,2517.390000168234,4.124823812503266,True,2,1,39,6,0,0,19.0,0.9574962769660927,52.35400783509264,47.9310167641012,-0.013674772972542826,-0.01977361175685625,5.337606237138832e-05
ITLT,3,2,774,77.51937984496124,2,0,True,"[74, 74, 74, 74, 74, 74]","[21, 603, 1131, 1701, 2240, 2837]",25.354902613380577,21.0,3328.940000385046,-4.3549026133805775,True,2,1,40,6,0,0,19.0,0.9574962769660927,52.35400783509264,47.9310167641012,-7.728716315273395,-10.574800243250003,0.009686004789800948
ITLT,3,5,843,71.17437722419929,1,1,True,"[74, 74, 74, 74, 74, 74]","[603, 1115, 1696, 2219, 2747, 3323]",19.194949373496982,13.0,11336.604999843985,-6.194949373496982,True,2,1,41,6,0,0,19.0,0.9574962769660927,52.35400783509264,47.9310167641012,-9.823659875134592,-13.243372974030894,0.020119663962329223
ITLT,3,4,599,100.1669449081803,3,0,True,"[74, 74, 74, 74, 74]","[27, 608, 1083, 1680, 2299]",43.84378078116181,58.0,4038.044999819249,14.156219218838189,True,2,1,42,6,0,0,19.0,0.9574962769660927,52.35400783509264,47.9310167641012,11.547469096539665,18.174479394002994,0.013487404259563811
ITLT,3,2,390,153.84615384615384,4,0,True,"[74, 74, 74, 74]","[27, 603, 1088, 1675]",74.79787473312055,63.0,2677.085000090301,-11.797874733120551,True,2,1,43,6,0,0,19.0,0.9574962769660927,52.35400783509264,47.9310167641012,-13.125754826038303,-17.288879636161703,0.03012200815771248
ITLT,3,6,710,84.50704225352112,2,1,True,"[74, 74, 74, 74, 74, 74]","[48, 619, 1200, 1861, 2336, 2757]",31.580629700998873,40.0,5028.2100001350045,8.419370299001127,True,2,1,44,6,0,0,19.0,0.9574962769660927,52.35400783509264,47.9310167641012,5.303175096619576,7.970846837375065,0.004297688300853582
ITLT,3,4,843,71.17437722419929,1,2,True,"[74, 74, 74, 74, 74]","[565, 1093, 1643, 2197, 2752]",19.194949373496982,36.0,2833.4850003011525,16.805050626503018,True,2,1,45,6,0,0,19.0,0.9574962769660927,52.35400783509264,47.9310167641012,13.176340124865408,20.991203469777112,0.040769671627649266
ITLT,3,2,599,100.1669449081803,3,1,True,"[74, 74, 74, 74, 74]","[27, 539, 1040, 1680, 2240]",43.84378078116181,49.0,3273.645000066608,5.156219218838189,True,2,1,46,6,0,0,19.0,0.9574962769660927,52.35400783509264,47.9310167641012,2.5474690965396647,3.752683795100406,0.000736999543362045
ITLT,3,4,774,77.51937984496124,2,2,True,"[74, 74, 74, 74, 74, 74, 74]","[27, 613, 1141, 1659, 2219, 2795, 3275]",25.354902613380577,31.0,2803.5300001502037,5.6450973866194225,True,2,1,47,6,0,0,19.0,0.9574962769660927,52.35400783509264,47.9310167641012,2.2712836847266047,3.3391205888320594,0.001159827193628982
ITLT,3,7,329,182.370820668693,5,1,True,"[74, 74, 74]","[48, 613, 1088]",87.06720173383901,96.0,2650.599999818951,8.932798266160987,True,2,1,48,6,0,0,19.0,0.9574962769660927,52.35400783509264,47.9310167641012,8.112618810848176,12.447854785017942,0.018444742068453493
ITLT,3,5,550,109.0909090909091,3,2,True,"[74, 74, 74, 74, 74]","[69, 661, 1211, 1803, 2331]",50.0,50.0,830.3950000554323,0.0,True,2,1,49,6,0,0,19.0,0.9574962769660927,52.35400783509264,47.9310167641012,-2.354007835092638,-3.346921596447129,0.00044393066580188074
ITLT,3,4,302,198.67549668874173,5,0,True,"[74, 74, 74]","[80, 683, 1269]",93.24415345434716,89.0,3619.3749997764826,-4.244153454347156,True,2,1,50,6,0,0,19.0,0.9574962769660927,52.35400783509264,47.9310167641012,-4.808732718486198,-6.717789296667918,0.008481767182429583
ITLT,3,6,390,153.84615384615384,4,2,True,"[74, 74, 74, 74]","[43, 603, 1147, 1637]",74.79787473312055,82.0,4314.979999791831,7.202125266879449,True,2,1,51,6,0,0,19.0,0.9574962769660927,52.35400783509264,47.9310167641012,5.874245173961697,8.866210085864338,0.006118514161663563
ITLT,3,3,550,109.0909090909091,3,1,True,"[74, 74, 74, 74, 74]","[75, 645, 1221, 1808, 2373]",50.0,50.0,765.7349999062717,0.0,True,2,1,52,6,0,0,19.0,0.9574962769660927,52.35400783509264,47.9310167641012,-2.354007835092638,-3.346921596447129,0.00044393066580188074
ITLT,3,4,463,129.58963282937364,4,0,True,"[74, 74, 74, 74]","[32, 640, 1195, 1691]",62.42097125758927,55.0,2374.9549998901784,-7.420971257589272,True,2,1,53,6,0,0,19.0,0.9574962769660927,52.35400783509264,47.9310167641012,-9.261003466571253,-12.534574419288624,0.00949169142574673
ITLT,3,6,918,65.359477124183,1,2,True,"[74, 74, 74, 74, 74, 74, 74, 74]","[27, 571, 1152, 1744, 2256, 2768, 3312, 3851]",13.046873249910696,0.0,2810.9699999913573,-13.046873249910696,True,2,1,54,6,0,0,19.0,0.9574962769660927,52.35400783509264,47.9310167641012,-16.9299890802029,-21.716277226223916,0.07768849617135269
ITLT,3,2,302,198.67549668874173,5,2,True,"[74, 74, 74]","[11, 608, 1131]",93.24415345434716,97.0,2764.6200000308454,3.755846545652844,True,2,1,55,6,0,0,19.0,0.9574962769660927,52.35400783509264,47.9310167641012,3.1912672815138023,4.723151656109463,0.003462474490156102
ITLT,3,6,550,109.0909090909091,3,2,True,"[74, 74, 74, 74]","[5, 603, 1189, 1787]",50.0,50.0,847.3000000230968,0.0,True,2,1,56,6,0,0,19.0,0.9574962769660927,52.35400783509264,47.9310167641012,-2.354007835092638,-3.346921596447129,0.00044393066580188074
ITLT,3,3,918,65.359477124183,1,1,True,"[74, 74, 74, 74, 74, 74, 74]","[293, 816, 1360, 1899, 2464, 3008, 3563]",13.046873249910696,25.0,3377.145000267774,11.953126750089304,True,2,1,57,6,0,0,19.0,0.9574962769660927,52.35400783509264,47.9310167641012,8.070010919797099,12.37858940197531,0.020158087992388756
ITLT,3,6,302,198.67549668874173,5,2,True,"[74, 74, 74]","[11, 603, 1115]",93.24415345434716,100.0,2172.289999667555,6.755846545652844,True,2,1,58,6,0,0,19.0,0.9574962769660927,52.35400783509264,47.9310167641012,6.191267281513802,9.36646041015221,0.013327555885411546
ITLT,3,7,390,153.84615384615384,4,2,True,"[74, 74, 74, 74]","[91, 672, 1211, 1680]",74.79787473312055,77.0,3536.3949998281896,2.202125266879449,True,2,1,59,6,0,0,19.0,0.9574962769660927,52.35400783509264,47.9310167641012,0.8742451739616968,1.2723022544482732,0.00014312771403933
ITLT,3,5,774,77.51937984496124,2,2,True,"[74, 74, 74, 74, 74]","[549, 1125, 1691, 2245, 2795]",25.354902613380577,39.0,2197.300000116229,13.645097386619423,True,2,1,60,6,0,0,19.0,0.9574962769660927,52.35400783509264,47.9310167641012,10.271283684726605,16.013528365560916,0.019609864610432435
ITLT,3,2,550,109.0909090909091,3,2,True,"[74, 74, 74, 74]","[101, 677, 1248, 1835]",50.0,50.0,1275.1899999566376,0.0,True,2,2,61,6,0,0,19.0,0.9574962769660927,52.35400783509264,47.9310167641012,-2.354007835092638,-3.346921596447129,0.00044393066580188074
ITLT,3,5,918,65.359477124183,1,0,True,"[74, 74, 74, 74, 74, 74, 74]","[101, 720, 1323, 1883, 2464, 3024, 3584]",13.046873249910696,13.0,2849.644999951124,-0.0468732499106963,True,2,2,62,6,0,0,19.0,0.9574962769660927,52.35400783509264,47.9310167641012,-3.929989080202901,-5.524811850724026,0.003595150656972361
ITLT,3,7,550,109.0909090909091,3,2,True,"[74, 74, 74, 74]","[101, 709, 1285, 1840]",50.0,50.0,661.809999961406,0.0,True,2,2,63,6,0,0,19.0,0.9574962769660927,52.35400783509264,47.9310167641012,-2.354007835092638,-3.346921596447129,0.00044393066580188074
ITLT,3,2,652,92.02453987730061,2,1,True,"[74, 74, 74, 74, 74]","[21, 613, 1189, 1819, 2528]",37.727982709047225,49.0,3235.679999925196,11.272017290952775,True,2,2,64,6,0,0,19.0,0.9574962769660927,52.35400783509264,47.9310167641012,8.410197494947312,12.932804398005784,0.008436857883983712
ITLT,3,4,1000,60.0,1,0,True,"[74, 74, 74, 74, 74, 74, 74, 74]","[91, 651, 1285, 1888, 2501, 3056, 3653, 4181]",6.875176187496734,28.0,3257.6999999582767,21.124823812503266,True,2,2,65,6,0,0,19.0,0.9574962769660927,52.35400783509264,47.9310167641012,16.986325227027457,27.844588018734605,0.10768535579598969
ITLT,3,6,504,119.04761904761905,3,0,True,"[74, 74, 74, 74]","[80, 683, 1221, 1808]",56.30039424560527,60.0,3125.2150000073016,3.6996057543947316,True,2,2,66,6,0,0,19.0,0.9574962769660927,52.35400783509264,47.9310167641012,1.6063061207763027,2.350125679525132,0.00029474420271824177
ITLT,3,4,710,84.50704225352112,2,0,True,"[74, 74, 74, 74, 74]","[123, 715, 1285, 1899, 2613]",31.580629700998873,46.0,2878.78999998793,14.419370299001127,True,2,2,67,6,0,0,19.0,0.9574962769660927,52.35400783509264,47.9310167641012,11.303175096619576,17.757726714348504,0.01854843006512311
ITLT,3,2,329,182.370820668693,5,0,True,"[74, 74, 74]","[91, 672, 1227]",87.06720173383901,100.0,2911.5900001488626,12.932798266160987,True,2,2,68,6,0,0,19.0,0.9574962769660927,52.35400783509264,47.9310167641012,12.112618810848176,19.14425653953669,0.04124764117665937
ITLT,3,6,652,92.02453987730061,2,2,True,"[74, 74, 74, 74, 74]","[75, 661, 1285, 1840, 2464]",37.727982709047225,43.0,2872.250000014901,5.272017290952775,True,2,2,69,6,0,0,19.0,0.9574962769660927,52.35400783509264,47.9310167641012,2.4101974949473117,3.54692525740289,0.0007884890008816224
ITLT,3,4,329,182.370820668693,5,1,True,"[74, 74, 74]","[75, 656, 1184]",87.06720173383901,78.0,4274.439999833703,-9.067201733839013,True,2,2,70,6,0,0,19.0,0.9574962769660927,52.35400783509264,47.9310167641012,-9.887381189151824,-13.32328205136019,0.02787743583568964
ITLT,3,6,425,141.1764705882353,4,1,True,"[74, 74, 74, 74]","[85, 672, 1216, 1829]",68.5984388693479,72.0,3220.7899997010827,3.401561130652098,True,2,2,71,6,0,0,19.0,0.9574962769660927,52.35400783509264,47.9310167641012,1.8171504602508577,2.662677056134247,0.000490439253471338
ITLT,3,3,599,100.1669449081803,3,2,True,"[74, 74, 74, 74, 74]","[59, 645, 1211, 1808, 2411]",43.84378078116181,48.0,2823.5749998129904,4.156219218838189,True,2,2,72,6,0,0,19.0,0.9574962769660927,52.35400783509264,47.9310167641012,1.5474690965396647,2.263076807145989,0.00029791554274842666
ITLT,3,7,463,129.58963282937364,4,1,True,"[74, 74, 74, 74]","[85, 699, 1237, 1808]",62.42097125758927,55.0,2859.014999587089,-7.420971257589272,True,2,2,73,6,0,0,19.0,0.9574962769660927,52.35400783509264,47.9310167641012,-9.261003466571253,-12.534574419288624,0.00949169142574673
ITLT,3,5,710,84.50704225352112,2,0,True,"[74, 74, 74, 74, 74]","[123, 736, 1339, 1899, 2587]",31.580629700998873,40.0,3440.3050001710653,8.419370299001127,True,2,2,74,6,0,0,19.0,0.9574962769660927,52.35400783509264,47.9310167641012,5.303175096619576,7.970846837375065,0.004297688300853582
ITLT,3,3,1000,60.0,1,0,True,"[74, 74, 74, 74, 74, 74]","[123, 715, 1312, 1941, 2555, 3179]",6.875176187496734,20.0,2978.904999792576,13.124823812503266,True,2,2,75,6,0,0,19.0,0.9574962769660927,52.35400783509264,47.9310167641012,8.986325227027457,13.877644133607914,0.03138811177206678
ITLT,3,7,652,92.02453987730061,2,1,True,"[74, 74, 74, 74, 74]","[96, 704, 1312, 1899, 2571]",37.727982709047225,48.0,3973.34499983117,10.272017290952775,True,2,2,76,6,0,0,19.0,0.9574962769660927,52.35400783509264,47.9310167641012,7.410197494947312,11.311395790082111,0.006597281226372824
ITLT,3,6,329,182.370820668693,5,0,True,"[74, 74, 74]","[32, 624, 1157]",87.06720173383901,100.0,2264.115000143647,12.932798266160987,True,2,2,77,6,0,0,19.0,0.9574962769660927,52.35400783509264,47.9310167641012,12.112618810848176,19.14425653953669,0.04124764117665937
ITLT,3,5,425,141.1764705882353,4,1,True,"[74, 74, 74, 74]","[59, 656, 1189, 1813]",68.5984388693479,62.0,3569.5099998265505,-6.598438869347902,True,2,2,78,6,0,0,19.0,0.9574962769660927,52.35400783509264,47.9310167641012,-8.182849539749142,-11.160165182403558,0.009152878741048637
ITLT,3,3,358,167.5977653631285,5,1,True,"[74, 74, 74]","[91, 688, 1264]",80.97360155738828,71.0,3553.9799998514354,-9.973601557388278,True,2,2,79,6,0,0,19.0,0.9574962769660927,52.35400783509264,47.9310167641012,-11.045932144928017,-14.76338442514178,0.027315435566773717
ITLT,3,4,390,153.84615384615384,4,2,True,"[74, 74, 74]","[85, 683, 1280]",74.79787473312055,77.0,3359.1350000351667,2.202125266879449,True,2,2,80,6,0,0,19.0,0.9574962769660927,52.35400783509264,47.9310167641012,0.8742451739616968,1.2723022544482732,0.00014312771403933
ITLT,3,3,652,92.02453987730061,2,0,True,"[74, 74, 74, 74, 74]","[85, 699, 1328, 1941, 2533]",37.727982709047225,49.0,3677.790000103414,11.272017290952775,True,2,2,81,6,0,0,19.0,0.9574962769660927,52.35400783509264,47.9310167641012,8.410197494947312,12.932804398005784,0.008436857883983712
ITLT,3,2,463,129.58963282937364,4,2,True,"[74, 74, 74, 74]","[85, 672, 1232, 1835]",62.42097125758927,54.0,3103.215000126511,-8.420971257589272,True,2,2,82,6,0,0,19.0,0.9574962769660927,52.35400783509264,47.9310167641012,-10.261003466571253,-13.790340577653641,0.011676079861557373
ITLT,3,5,599,100.1669449081803,3,0,True,"[74, 74, 74, 74, 74]","[144, 699, 1269, 1899, 2501]",43.84378078116181,50.0,559.0200000442564,6.156219218838189,True,2,2,83,6,0,0,19.0,0.9574962769660927,52.35400783509264,47.9310167641012,3.5474690965396647,5.2639890249603125,0.0013716090708796459
ITLT,3,3,425,141.1764705882353,4,2,True,"[74, 74, 74, 74]","[69, 672, 1344, 1824]",68.5984388693479,58.0,2586.780000012368,-10.598438869347902,True,2,2,84,6,0,0,19.0,0.9574962769660927,52.35400783509264,47.9310167641012,-12.182849539749142,-16.153332650331777,0.020391067536216452
ITLT,3,2,843,71.17437722419929,1,2,True,"[74, 74, 74, 74, 74, 74, 74]","[43, 624, 1195, 1771, 2363, 2971, 3525]",19.194949373496982,25.0,2770.9800000302494,5.805050626503018,True,2,2,85,6,0,0,19.0,0.9574962769660927,52.35400783509264,47.9310167641012,2.1763401248654084,3.1973320978923496,0.0014068967592936125
ITLT,3,5,358,167.5977653631285,5,0,True,"[74, 74, 74, 74]","[27, 629, 1195, 1621]",80.97360155738828,87.0,2492.240000050515,6.026398442611722,True,2,2,86,6,0,0,19.0,0.9574962769660927,52.35400783509264,47.9310167641012,4.954067855071983,7.427123011231965,0.0054775646736040726
ITLT,3,6,843,71.17437722419929,1,1,True,"[74, 74, 74, 74, 74, 74, 74]","[43, 613, 1205, 1771, 2352, 2997, 3445]",19.194949373496982,8.0,3763.784999959171,-11.194949373496982,True,2,2,87,6,0,0,19.0,0.9574962769660927,52.35400783509264,47.9310167641012,-14.823659875134592,-19.295037938578933,0.046904287879457385
ITLT,3,7,358,167.5977653631285,5,2,True,"[74, 74, 74]","[64, 629, 1173]",80.97360155738828,86.0,2667.969999834895,5.026398442611722,True,2,2,88,6,0,0,19.0,0.9574962769660927,52.35400783509264,47.9310167641012,3.954067855071983,5.884761047377637,0.0034875280926109985
ITLT,3,4,504,119.04761904761905,3,2,True,"[74, 74, 74, 74]","[80, 619, 1168, 1749]",56.30039424560527,50.0,734.7749997861683,-6.300394245605268,True,2,2,89,6,0,0,19.0,0.9574962769660927,52.35400783509264,47.9310167641012,-8.393693879223697,-11.430633608380642,0.006677019889474626
ITLT,3,7,843,71.17437722419929,1,2,True,"[74, 74, 74, 74, 74, 74, 74]","[5, 619, 1173, 1760, 2267, 2741, 3232]",19.194949373496982,33.0,3286.9400000199676,13.805050626503018,True,2,2,90,6,0,0,19.0,0.9574962769660927,52.35400783509264,47.9310167641012,10.176340124865408,15.854349701935577,0.02467315407340476
ITLT,7,2,463,129.58963282937364,4,1,True,"[74, 74, 74, 74, 74]","[331, 760, 1109, 1549, 1989]",62.42097125758927,50.0,876,-12.420971257589272,True,2,0,1,4,2,0,26.0,0.9335188196790787,47.19491477182052,54.670525379559784,-10.776135259356856,-12.770411571232573,0.007649029237910292
ITLT,7,3,329,182.370820668693,5,1,True,"[74, 74, 74, 74, 74]","[339, 619, 851, 1139, 1440]",87.06720173383901,81.0,3182,-6.067201733839013,True,2,0,2,4,2,0,26.0,0.9335188196790787,47.19491477182052,54.670525379559784,-6.724582634602683,-8.172509523650742,0.005329152791826755
ITLT,7,2,504,119.04761904761905,3,1,True,"[74, 74, 74, 74, 74]","[320, 709, 1179, 1669, 2179]",56.30039424560527,50.0,1374,-6.300394245605268,True,2,0,3,4,2,0,26.0,0.9335188196790787,47.19491477182052,54.670525379559784,-4.083832041932425,-5.0459771747326565,0.0012661535432235687
ITLT,7,6,329,182.370820668693,5,1,True,"[74, 74, 74, 74, 74]","[331, 741, 952, 1171, 1512]",87.06720173383901,100.0,2863,12.932798266160987,True,2,0,4,4,2,0,26.0,0.9335188196790787,47.19491477182052,54.670525379559784,12.275417365397317,16.840016630138873,0.025352455727176208
ITLT,7,2,710,84.50704225352112,2,0,True,"[74, 74, 74, 74, 74]","[19, 709, 1659, 2309, 2960]",31.580629700998873,15.0,1893,-16.580629700998873,True,2,0,5,4,2,0,26.0,0.9335188196790787,47.19491477182052,54.670525379559784,-12.054981743679505,-14.17334924920443,0.014808283608541833
ITLT,7,5,302,198.67549668874173,5,1,True,"[74, 74, 74, 74]","[560, 840, 1091, 1379]",93.24415345434716,97.0,2428,3.755846545652844,True,2,0,6,4,2,0,26.0,0.9335188196790787,47.19491477182052,54.670525379559784,2.521473449310207,3.248531242265171,0.0024340115796389573
ITLT,7,3,710,84.50704225352112,2,2,True,"[74, 74, 74, 74, 74]","[491, 821, 1680, 2312, 3021]",31.580629700998873,3.0,2318,-28.580629700998873,True,2,0,7,4,2,0,26.0,0.9335188196790787,47.19491477182052,54.670525379559784,-24.054981743679505,-26.286492945108353,0.05032840442064764
ITLT,7,4,843,71.17437722419929,1,0,True,"[74, 74, 74, 74]","[309, 651, 1709, 2629]",19.194949373496982,0.0,1935,-19.194949373496982,True,2,0,8,4,2,0,26.0,0.9335188196790787,47.19491477182052,54.670525379559784,-13.512348729923374,-15.74464221059736,0.031471901740450545
ITLT,7,7,550,109.0909090909091,3,0,True,"[74, 74, 74, 74, 74]","[240, 669, 1211, 1731, 2240]",50.0,50.0,1828,0.0,True,2,0,9,4,2,0,26.0,0.9335188196790787,47.19491477182052,54.670525379559784,2.805085228179479,3.6204614164623785,0.0001258759811121883
ITLT,7,4,710,84.50704225352112,2,2,True,"[74, 74, 74, 74]","[472, 1512, 2211, 2920]",31.580629700998873,18.0,1930,-13.580629700998873,True,2,0,10,4,2,0,26.0,0.9335188196790787,47.19491477182052,54.670525379559784,-9.054981743679505,-10.84597846483495,0.009221113948381142
ITLT,7,3,1000,60.0,1,2,True,"[74, 74, 74, 74, 74, 74, 74]","[349, 800, 1339, 1800, 2240, 2739, 3160]",6.875176187496734,0.0,2356,-6.875176187496734,True,2,0,11,4,2,0,26.0,0.9335188196790787,47.19491477182052,54.670525379559784,-0.04177927721044483,-0.05295635895297579,0.002321901029891046
ITLT,7,4,504,119.04761904761905,3,2,True,[74],[640],56.30039424560527,50.0,708,-6.300394245605268,True,2,0,12,4,2,0,26.0,0.9335188196790787,47.19491477182052,54.670525379559784,-4.083832041932425,-5.0459771747326565,0.0012661535432235687
ITLT,7,7,843,71.17437722419929,1,1,True,"[74, 74, 74, 74]","[331, 691, 1789, 2491]",19.194949373496982,3.0,1584,-16.194949373496982,True,2,0,13,4,2,0,26.0,0.9335188196790787,47.19491477182052,54.670525379559784,-10.512348729923374,-12.478188102431474,0.020973708520475736
ITLT,7,4,302,198.67549668874173,5,2,True,"[74, 74]","[611, 840]",93.24415345434716,99.0,1504,5.755846545652844,True,2,0,14,4,2,0,26.0,0.9335188196790787,47.19491477182052,54.670525379559784,4.521473449310207,5.90010666198966,0.005891256681000573
ITLT,7,7,390,153.84615384615384,4,1,True,,,74.79787473312055,63.0,1163,-11.797874733120551,False,1,0,15,4,2,0,26.0,0.9335188196790787,47.19491477182052,54.670525379559784,-11.309171570944756,-13.357936286830569,0.01163729299368892
ITLT,7,5,550,109.0909090909091,3,2,True,"[74, 74, 74, 74]","[400, 1032, 1581, 2080]",50.0,30.0,3330,-20.0,True,2,0,16,4,2,0,26.0,0.9335188196790787,47.19491477182052,54.670525379559784,-17.19491477182052,-19.588091478474375,0.016543861735288597
ITLT,7,2,358,167.5977653631285,5,0,True,"[74, 74, 74]","[141, 651, 1011]",80.97360155738828,77.0,2812,-3.973601557388278,True,2,0,17,4,2,0,26.0,0.9335188196790787,47.19491477182052,54.670525379559784,-4.0617761726119,-5.019420696162441,0.0015567683001867648
ITLT,7,5,463,129.58963282937364,4,1,True,"[74, 74, 74, 74, 74]","[360, 699, 1080, 1499, 1960]",62.42097125758927,50.0,1002,-12.420971257589272,True,2,0,18,4,2,0,26.0,0.9335188196790787,47.19491477182052,54.670525379559784,-10.776135259356856,-12.770411571232573,0.007649029237910281
ITLT,7,6,843,71.17437722419929,1,0,True,[74],[149],19.194949373496982,11.0,1283,-8.194949373496982,True,2,0,19,4,2,0,26.0,0.9335188196790787,47.19491477182052,54.670525379559784,-2.5123487299233744,-3.1351164448045825,0.003357334445056406
ITLT,7,5,774,77.51937984496124,2,0,True,"[74, 74, 74]","[491, 789, 1611]",25.354902613380577,26.0,1887,0.6450973866194225,True,2,0,20,4,2,0,26.0,0.9335188196790787,47.19491477182052,54.670525379559784,5.752293671317471,7.565651187490333,0.0009809164225352716
ITLT,7,7,302,198.67549668874173,5,1,True,,,93.24415345434716,100.0,2041,6.755846545652844,False,1,0,21,4,2,0,26.0,0.9335188196790787,47.19491477182052,54.670525379559784,5.521473449310207,7.251322256236887,0.008183722971715601
ITLT,7,3,599,100.1669449081803,3,0,True,"[74, 74, 74, 74]","[611, 1171, 1789, 2309]",43.84378078116181,23.0,2931,-20.84378078116181,True,2,0,22,4,2,0,26.0,0.9335188196790787,47.19491477182052,54.670525379559784,-17.463639990907986,-19.861594031140406,0.018610699690029642
ITLT,7,5,1000,60.0,1,1,True,"[74, 74, 74, 74, 74]","[389, 731, 1981, 2971, 3869]",6.875176187496734,26.0,3397,19.124823812503266,True,2,0,23,4,2,0,26.0,0.9335188196790787,47.19491477182052,54.670525379559784,25.958220722789555,38.973709544561146,0.09509360580193241
ITLT,7,7,652,92.02453987730061,2,1,True,"[74, 74, 74, 74, 74]","[371, 741, 1440, 2080, 2741]",37.727982709047225,27.0,4958,-10.727982709047225,True,2,0,24,4,2,0,26.0,0.9335188196790787,47.19491477182052,54.670525379559784,-6.776562116551915,-8.233006515152391,0.0044354305229703395
ITLT,7,4,390,153.84615384615384,4,1,True,"[74, 74, 74, 74]","[709, 1019, 1349, 1739]",74.79787473312055,100.0,3077,25.20212526687945,True,2,0,25,4,2,0,26.0,0.9335188196790787,47.19491477182052,54.670525379559784,25.690828429055244,38.503363178584074,0.061696505966464366
ITLT,7,6,599,100.1669449081803,3,2,True,"[74, 74, 74]","[400, 1989, 2491]",43.84378078116181,30.0,3287,-13.843780781161811,True,2,0,26,4,2,0,26.0,0.9335188196790787,47.19491477182052,54.670525379559784,-10.463639990907986,-12.424121446556635,0.007418365565895887
ITLT,7,3,425,141.1764705882353,4,1,True,"[74, 74, 74, 74, 74]","[91, 699, 1139, 1339, 1779]",68.5984388693479,63.0,1986,-5.598438869347902,True,2,0,27,4,2,0,26.0,0.9335188196790787,47.19491477182052,54.670525379559784,-4.530643256358033,-5.582366466417939,0.001654611375787531
ITLT,7,6,710,84.50704225352112,2,0,True,"[74, 74, 74, 74, 74]","[349, 699, 1499, 2160, 2869]",31.580629700998873,36.0,4064,4.419370299001127,True,2,0,28,4,2,0,26.0,0.9335188196790787,47.19491477182052,54.670525379559784,8.945018256320495,12.009168877427799,0.003358124547489382
ITLT,7,2,1000,60.0,1,0,True,[74],[1760],6.875176187496734,16.0,2248,9.124823812503266,True,2,0,29,4,2,0,26.0,0.9335188196790787,47.19491477182052,54.670525379559784,15.958220722789555,22.424989115443715,0.029321281652749772
ITLT,7,6,425,141.1764705882353,4,2,True,"[74, 74, 74, 74]","[821, 1051, 1371, 1840]",68.5984388693479,71.0,4509,2.401561130652098,True,2,0,30,4,2,0,26.0,0.9335188196790787,47.19491477182052,54.670525379559784,3.469356743641967,4.496843466761236,0.0007733527051822293
ITLT,7,3,390,153.84615384615384,4,0,True,"[74, 74, 74, 74, 74]","[541, 731, 1021, 1280, 1621]",74.79787473312055,79.0,2363,4.202125266879449,True,2,1,31,4,2,0,26.0,0.9335188196790787,47.19491477182052,54.670525379559784,4.690828429055244,6.127738456369082,0.0021329494257941615
ITLT,7,2,599,100.1669449081803,3,2,True,"[74, 74, 74, 74, 74]","[160, 680, 1288, 1859, 2440]",43.84378078116181,50.0,799,6.156219218838189,True,2,1,32,4,2,0,26.0,0.9335188196790787,47.19491477182052,54.670525379559784,9.536360009092014,12.852102524474486,0.003313030956330775
ITLT,7,5,710,84.50704225352112,2,1,True,"[74, 74, 74]","[1720, 2221, 2869]",31.580629700998873,40.0,2267,8.419370299001127,True,2,1,33,4,2,0,26.0,0.9335188196790787,47.19491477182052,54.670525379559784,12.945018256320495,17.83616642131003,0.0084946097422287
ITLT,7,6,550,109.0909090909091,3,0,True,"[74, 74, 74, 74]","[920, 1280, 1771, 2320]",50.0,50.0,2974,0.0,True,2,1,34,4,2,0,26.0,0.9335188196790787,47.19491477182052,54.670525379559784,2.805085228179479,3.6204614164623785,0.0001258759811121883
ITLT,7,5,329,182.370820668693,5,0,True,"[74, 74, 74, 74, 74]","[320, 648, 920, 1139, 1408]",87.06720173383901,100.0,1687,12.932798266160987,True,2,1,35,4,2,0,26.0,0.9335188196790787,47.19491477182052,54.670525379559784,12.275417365397317,16.840016630138873,0.025352455727176208
ITLT,7,7,504,119.04761904761905,3,2,True,"[74, 74, 74, 74]","[709, 1099, 1600, 2149]",56.30039424560527,50.0,1349,-6.300394245605268,True,2,1,36,4,2,0,26.0,0.9335188196790787,47.19491477182052,54.670525379559784,-4.083832041932425,-5.0459771747326565,0.0012661535432235687
ITLT,7,5,425,141.1764705882353,4,2,True,"[74, 74, 74, 74, 74]","[491, 771, 1061, 1501, 1829]",68.5984388693479,77.0,2667,8.401561130652098,True,2,1,37,4,2,0,26.0,0.9335188196790787,47.19491477182052,54.670525379559784,9.469356743641967,12.756274313214977,0.00626849385674337
ITLT,7,2,918,65.359477124183,1,2,True,"[74, 74, 74]","[299, 669, 1499]",13.046873249910696,0.0,2324,-13.046873249910696,True,2,1,38,4,2,0,26.0,0.9335188196790787,47.19491477182052,54.670525379559784,-6.789977694923586,-8.248613937518826,0.014763357149243896
ITLT,7,4,329,182.370820668693,5,0,True,"[74, 74, 74, 74]","[589, 891, 1179, 1480]",87.06720173383901,99.0,2760,11.932798266160987,True,2,1,39,4,2,0,26.0,0.9335188196790787,47.19491477182052,54.670525379559784,11.275417365397317,15.367996992697357,0.021609630763076183
ITLT,7,3,918,65.359477124183,1,0,True,"[74, 74, 74, 74, 74]","[149, 669, 1669, 2819, 3720]",13.046873249910696,24.0,5404,10.953126750089304,True,2,1,40,4,2,0,26.0,0.9335188196790787,47.19491477182052,54.670525379559784,17.210022305076414,24.383512281845785,0.029570337734969504
ITLT,7,2,329,182.370820668693,5,2,True,"[74, 74, 74, 74]","[421, 731, 1051, 1371]",87.06720173383901,75.0,5247,-12.067201733839013,True,2,1,41,4,2,0,26.0,0.9335188196790787,47.19491477182052,54.670525379559784,-12.724582634602683,-14.89890068913028,0.021414062120379117
ITLT,7,6,918,65.359477124183,1,2,True,"[74, 74, 74, 74]","[851, 1829, 2851, 3811]",13.046873249910696,1.0,4113,-12.046873249910696,True,2,1,42,4,2,0,26.0,0.9335188196790787,47.19491477182052,54.670525379559784,-5.789977694923586,-7.0779266969749965,0.011941430951379763
ITLT,7,5,504,119.04761904761905,3,1,True,"[74, 74, 74, 74]","[581, 1120, 1661, 2160]",56.30039424560527,50.0,1405,-6.300394245605268,True,2,1,43,4,2,0,26.0,0.9335188196790787,47.19491477182052,54.670525379559784,-4.083832041932425,-5.0459771747326565,0.0012661535432235687
ITLT,7,4,1000,60.0,1,2,True,"[74, 74, 74, 74, 74]","[379, 699, 2000, 2960, 4099]",6.875176187496734,35.0,3315,28.124823812503266,True,2,1,44,4,2,0,26.0,0.9335188196790787,47.19491477182052,54.670525379559784,34.958220722789555,55.77184664408454,0.1864483460955899
ITLT,7,2,425,141.1764705882353,4,2,True,"[74, 74, 74, 74, 74]","[211, 771, 1069, 1429, 1821]",68.5984388693479,64.0,2270,-4.598438869347902,True,2,1,45,4,2,0,26.0,0.9335188196790787,47.19491477182052,54.670525379559784,-3.530643256358033,-4.377659664660904,0.0010314469457522752
ITLT,7,7,918,65.359477124183,1,2,True,"[74, 74, 74, 74, 74]","[360, 741, 1960, 2741, 3789]",13.046873249910696,22.0,3573,8.953126750089304,True,2,1,46,4,2,0,26.0,0.9335188196790787,47.19491477182052,54.670525379559784,15.210022305076414,21.269140878630566,0.021757688608774157
ITLT,7,3,550,109.0909090909091,3,1,True,"[74, 74, 74, 74]","[611, 1229, 1789, 2349]",50.0,50.0,1676,0.0,True,2,1,47,4,2,0,26.0,0.9335188196790787,47.19491477182052,54.670525379559784,2.805085228179479,3.6204614164623785,0.0001258759811121883
ITLT,7,6,652,92.02453987730061,2,1,True,"[74, 74, 74, 74, 74]","[349, 720, 1320, 2000, 2669]",37.727982709047225,38.0,2525,0.2720172909527747,True,2,1,48,4,2,0,26.0,0.9335188196790787,47.19491477182052,54.670525379559784,4.223437883448085,5.500698962531381,0.0003368780020624292
ITLT,7,3,358,167.5977653631285,5,0,True,"[74, 74, 74, 74, 74]","[139, 629, 1000, 1248, 1560]",80.97360155738828,82.0,8820,1.0263984426117219,True,2,1,49,4,2,0,26.0,0.9335188196790787,47.19491477182052,54.670525379559784,0.9382238273881001,1.1966421147399067,0.00022135444679161396
ITLT,7,4,652,92.02453987730061,2,1,True,"[74, 74, 74, 74, 74]","[448, 760, 1459, 2099, 2768]",37.727982709047225,32.0,7877,-5.727982709047225,True,2,1,50,4,2,0,26.0,0.9335188196790787,47.19491477182052,54.670525379559784,-1.776562116551915,-2.2272588175656343,0.0007830990893331917
ITLT,7,5,918,65.359477124183,1,2,True,"[74, 74, 74, 74]","[1040, 1909, 2899, 3771]",13.046873249910696,28.0,2058,14.953126750089304,True,2,1,51,4,2,0,26.0,0.9335188196790787,47.19491477182052,54.670525379559784,21.210022305076414,30.85425416690427,0.04878403639320649
ITLT,7,7,710,84.50704225352112,2,0,True,"[74, 74, 74, 74, 74]","[379, 760, 1509, 2269, 2880]",31.580629700998873,37.0,2467,5.419370299001127,True,2,1,52,4,2,0,26.0,0.9335188196790787,47.19491477182052,54.670525379559784,9.945018256320495,13.438332080907127,0.0044227218099831605
ITLT,7,6,463,129.58963282937364,4,0,True,,,62.42097125758927,67.0,3353,4.579028742410728,False,1,1,53,4,2,0,26.0,0.9335188196790787,47.19491477182052,54.670525379559784,6.223864740643144,8.210699020426038,0.001923338210204956
ITLT,7,7,358,167.5977653631285,5,0,True,,,80.97360155738828,89.0,3643,8.026398442611722,False,1,1,54,4,2,0,26.0,0.9335188196790787,47.19491477182052,54.670525379559784,7.9382238273881,10.588484169506732,0.008271071104599716
ITLT,7,3,774,77.51937984496124,2,0,True,,,25.354902613380577,22.0,3689,-3.3549026133805775,False,1,1,55,4,2,0,26.0,0.9335188196790787,47.19491477182052,54.670525379559784,1.7522936713174708,2.2465305447277317,5.160349668302802e-05
ITLT,7,6,302,198.67549668874173,5,0,True,,,93.24415345434716,100.0,2453,6.755846545652844,False,1,1,56,4,2,0,26.0,0.9335188196790787,47.19491477182052,54.670525379559784,5.521473449310207,7.251322256236887,0.008183722971715601
ITLT,7,4,463,129.58963282937364,4,2,True,,,62.42097125758927,50.0,1787,-12.420971257589272,False,1,1,57,4,2,0,26.0,0.9335188196790787,47.19491477182052,54.670525379559784,-10.776135259356856,-12.770411571232573,0.007649029237910281
ITLT,7,2,774,77.51937984496124,2,1,True,,,25.354902613380577,11.0,2198,-14.354902613380577,False,1,1,58,4,2,0,26.0,0.9335188196790787,47.19491477182052,54.670525379559784,-9.24770632868253,-11.063558871030535,0.012784191654105666
ITLT,7,7,425,141.1764705882353,4,0,True,,,68.5984388693479,58.0,1555,-10.598438869347902,False,1,1,59,4,2,0,26.0,0.9335188196790787,47.19491477182052,54.670525379559784,-9.530643256358033,-11.382024718280231,0.006969035366862065
ITLT,7,4,550,109.0909090909091,3,1,True,,,50.0,50.0,1672,0.0,False,1,1,60,4,2,0,26.0,0.9335188196790787,47.19491477182052,54.670525379559784,2.805085228179479,3.6204614164623785,0.0001258759811121883
ITLT,7,4,425,141.1764705882353,4,0,True,,,68.5984388693479,64.0,1555,-4.598438869347902,False,1,2,61,4,2,0,26.0,0.9335188196790787,47.19491477182052,54.670525379559784,-3.530643256358033,-4.377659664660904,0.0010314469457522752
ITLT,7,3,504,119.04761904761905,3,2,True,"[74, 74, 74, 74]","[579, 1120, 1640, 2160]",56.30039424560527,50.0,946,-6.300394245605268,True,2,2,62,4,2,0,26.0,0.9335188196790787,47.19491477182052,54.670525379559784,-4.083832041932425,-5.0459771747326565,0.0012661535432235687
ITLT,7,5,390,153.84615384615384,4,0,True,"[74, 74, 74, 74, 74]","[160, 640, 971, 1280, 1539]",74.79787473312055,80.0,2111,5.202125266879449,True,2,2,63,4,2,0,26.0,0.9335188196790787,47.19491477182052,54.670525379559784,5.690828429055244,7.481858482349273,0.00311504909443529
ITLT,7,6,504,119.04761904761905,3,1,True,,,56.30039424560527,50.0,748,-6.300394245605268,False,1,2,64,4,2,0,26.0,0.9335188196790787,47.19491477182052,54.670525379559784,-4.083832041932425,-5.0459771747326565,0.0012661535432235687
ITLT,7,4,918,65.359477124183,1,1,True,"[74, 74]","[608, 1600]",13.046873249910696,1.0,2380,-12.046873249910696,True,2,2,65,4,2,0,26.0,0.9335188196790787,47.19491477182052,54.670525379559784,-5.789977694923586,-7.0779266969749965,0.011941430951379763
ITLT,7,2,390,153.84615384615384,4,0,True,"[74, 74]","[589, 1011]",74.79787473312055,92.0,1886,17.20212526687945,True,2,2,66,4,2,0,26.0,0.9335188196790787,47.19491477182052,54.670525379559784,17.690828429055244,25.144065159478306,0.0293634744178341
ITLT,7,6,1000,60.0,1,1,True,,,6.875176187496734,0.0,2586,-6.875176187496734,False,1,2,67,4,2,0,26.0,0.9335188196790787,47.19491477182052,54.670525379559784,-0.04177927721044483,-0.05295635895297579,0.002321901029891046
ITLT,7,5,599,100.1669449081803,3,0,True,,,43.84378078116181,43.0,2388,-0.8437807811618114,False,1,2,68,4,2,0,26.0,0.9335188196790787,47.19491477182052,54.670525379559784,2.5363600090920144,3.2680203262444225,5.282136078161861e-05
ITLT,7,2,843,71.17437722419929,1,1,True,"[74, 74, 74]","[509, 2659, 3379]",19.194949373496982,11.0,1715,-8.194949373496982,True,2,2,69,4,2,0,26.0,0.9335188196790787,47.19491477182052,54.670525379559784,-2.5123487299233744,-3.1351164448045825,0.003357334445056406
ITLT,7,3,652,92.02453987730061,2,1,True,"[74, 74, 74, 74]","[400, 1411, 2021, 2560]",37.727982709047225,34.0,2750,-3.7279827090472253,True,2,2,70,4,2,0,26.0,0.9335188196790787,47.19491477182052,54.670525379559784,0.22343788344808502,0.28369019177291716,0.00015719792289823272
ITLT,7,6,390,153.84615384615384,4,1,True,"[74, 74, 74, 74, 74]","[309, 720, 960, 1291, 1621]",74.79787473312055,69.0,4508,-5.797874733120551,True,2,2,71,4,2,0,26.0,0.9335188196790787,47.19491477182052,54.670525379559784,-5.309171570944756,-6.50974728999655,0.0025103836558417396
ITLT,7,7,1000,60.0,1,0,True,"[74, 74, 74, 74]","[680, 2189, 3099, 4019]",6.875176187496734,24.0,1890,17.124823812503266,True,2,2,72,4,2,0,26.0,0.9335188196790787,47.19491477182052,54.670525379559784,23.958220722789555,35.49402209351392,0.07893005104841
ITLT,7,2,652,92.02453987730061,2,2,True,"[74, 74, 74, 74, 74]","[331, 709, 1421, 2069, 2709]",37.727982709047225,25.0,3082,-12.727982709047225,True,2,2,73,4,2,0,26.0,0.9335188196790787,47.19491477182052,54.670525379559784,-8.776562116551915,-10.530710567926258,0.0067313945034451
ITLT,7,7,329,182.370820668693,5,2,True,"[74, 74, 74, 74]","[360, 829, 1189, 1491]",87.06720173383901,94.0,2060,6.932798266160987,True,2,2,74,4,2,0,26.0,0.9335188196790787,47.19491477182052,54.670525379559784,6.275417365397317,8.281450436523183,0.007377117467361239
ITLT,7,6,774,77.51937984496124,2,2,True,"[74, 74, 74]","[1661, 2331, 3040]",25.354902613380577,28.0,1401,2.6450973866194225,True,2,2,75,4,2,0,26.0,0.9335188196790787,47.19491477182052,54.670525379559784,7.752293671317471,10.328096650527126,0.0025574418820807614
ITLT,7,7,599,100.1669449081803,3,1,True,"[74, 74, 74, 74, 74]","[309, 731, 1269, 1901, 2560]",43.84378078116181,50.0,494,6.156219218838189,True,2,2,76,4,2,0,26.0,0.9335188196790787,47.19491477182052,54.670525379559784,9.536360009092014,12.852102524474486,0.003313030956330775
ITLT,7,6,358,167.5977653631285,5,2,True,"[74, 74, 74, 74, 74]","[291, 659, 971, 1280, 1579]",80.97360155738828,72.0,2637,-8.973601557388278,True,2,2,77,4,2,0,26.0,0.9335188196790787,47.19491477182052,54.670525379559784,-9.0617761726119,-10.853658220557035,0.00879652504201127
ITLT,7,7,774,77.51937984496124,2,2,True,"[74, 74, 74, 74, 74]","[301, 651, 1571, 2301, 3131]",25.354902613380577,21.0,2570,-4.3549026133805775,True,2,2,78,4,2,0,26.0,0.9335188196790787,47.19491477182052,54.670525379559784,0.7522936713174708,0.9583682766706885,0.0002825540138113704
ITLT,7,3,463,129.58963282937364,4,2,True,"[74, 74, 74, 74, 74]","[229, 600, 1019, 1448, 1888]",62.42097125758927,64.0,2394,1.5790287424107277,True,2,2,79,4,2,0,26.0,0.9335188196790787,47.19491477182052,54.670525379559784,3.223864740643144,4.172102530028254,0.0004277746477813911
ITLT,7,2,302,198.67549668874173,5,1,True,"[74, 74, 74, 74, 74]","[19, 509, 808, 1099, 1368]",93.24415345434716,91.0,2317,-2.244153454347156,True,2,2,80,4,2,0,26.0,0.9335188196790787,47.19491477182052,54.670525379559784,-3.478526550689793,-4.3144545781475285,0.0010837761161016442
ITLT,7,7,463,129.58963282937364,4,2,True,"[74, 74, 74, 74, 74]","[120, 629, 1091, 1571, 2011]",62.42097125758927,63.0,1250,0.5790287424107277,True,2,2,81,4,2,0,26.0,0.9335188196790787,47.19491477182052,54.670525379559784,2.223864740643144,2.859680767172941,0.00016791818660556165
ITLT,7,5,843,71.17437722419929,1,0,True,"[74, 74, 74, 74, 74]","[48, 408, 1640, 2619, 3560]",19.194949373496982,21.0,1715,1.805050626503018,True,2,2,82,4,2,0,26.0,0.9335188196790787,47.19491477182052,54.670525379559784,7.487651270076626,9.958532890482408,0.002566246532741629
ITLT,7,2,550,109.0909090909091,3,0,True,"[74, 74, 74, 74, 74]","[0, 480, 1069, 1619, 2088]",50.0,33.0,1910,-17.0,True,2,2,83,4,2,0,26.0,0.9335188196790787,47.19491477182052,54.670525379559784,-14.194914771820521,-16.470642145553324,0.011587787360305182
ITLT,7,3,302,198.67549668874173,5,2,True,"[74, 74, 74, 74]","[419, 731, 1011, 1309]",93.24415345434716,100.0,4583,6.755846545652844,True,2,2,84,4,2,0,26.0,0.9335188196790787,47.19491477182052,54.670525379559784,5.521473449310207,7.251322256236887,0.008183722971715601
ITLT,7,5,652,92.02453987730061,2,2,True,"[74, 74, 74, 74, 74]","[341, 701, 1392, 2141, 2720]",37.727982709047225,15.0,1570,-22.727982709047225,True,2,2,85,4,2,0,26.0,0.9335188196790787,47.19491477182052,54.670525379559784,-18.776562116551915,-21.184540437297592,0.02536862646598947
ITLT,7,4,358,167.5977653631285,5,1,True,"[74, 74, 74, 74]","[469, 811, 1120, 1480]",80.97360155738828,79.0,1499,-1.9736015573882781,True,2,2,86,4,2,0,26.0,0.9335188196790787,47.19491477182052,54.670525379559784,-2.0617761726119,-2.580178545179161,0.0003140816122171818
ITLT,7,3,843,71.17437722419929,1,1,True,"[74, 74, 74, 74, 74]","[451, 749, 1771, 2629, 3400]",19.194949373496982,32.0,3743,12.805050626503018,True,2,2,87,4,2,0,26.0,0.9335188196790787,47.19491477182052,54.670525379559784,18.487651270076626,26.414755853975716,0.02894042042104325
ITLT,7,4,599,100.1669449081803,3,0,True,"[74, 74, 74, 74, 74]","[208, 589, 1109, 1699, 2248]",43.84378078116181,50.0,947,6.156219218838189,True,2,2,88,4,2,0,26.0,0.9335188196790787,47.19491477182052,54.670525379559784,9.536360009092014,12.852102524474486,0.003313030956330775
ITLT,7,5,358,167.5977653631285,5,2,True,"[74, 74, 74, 74]","[512, 821, 1200, 1571]",80.97360155738828,83.0,1322,2.026398442611722,True,2,2,89,4,2,0,26.0,0.9335188196790787,47.19491477182052,54.670525379559784,1.9382238273881,2.48784459999643,0.0006627928227241061
ITLT,7,4,774,77.51937984496124,2,0,True,"[74, 74, 74, 74]","[400, 1659, 2389, 2989]",25.354902613380577,28.0,1860,2.6450973866194225,True,2,2,90,4,2,0,26.0,0.9335188196790787,47.19491477182052,54.670525379559784,7.752293671317471,10.328096650527126,0.0025574418820807614
ITLT,8,4,774,77.51937984496124,2,1,False,,,25.354902613380577,19.0,13374.95500000022,-6.3549026133805775,False,0,0,1,4,0,2,17.0,0.9696182553635582,49.75384934059793,55.57981231537249,-3.358451595750239,-4.101892189109301,0.002217178857126172
ITLT,8,2,463,129.58963282937364,4,2,False,,,62.42097125758927,67.0,6789.429999999818,4.579028742410728,False,0,0,2,4,0,2,17.0,0.9696182553635582,49.75384934059793,55.57981231537249,3.439045633973109,4.382206576695023,0.0009557288180261798
ITLT,8,7,599,100.1669449081803,3,2,False,,,43.84378078116181,43.0,3103.729999999865,-0.8437807811618114,False,0,0,3,4,0,2,17.0,0.9696182553635582,49.75384934059793,55.57981231537249,0.08938083450837553,0.11153081195358472,7.250643533691924e-06
ITLT,8,2,358,167.5977653631285,5,2,False,,,80.97360155738828,82.0,18860.734999999288,1.0263984426117219,False,0,0,4,4,0,2,17.0,0.9696182553635582,49.75384934059793,55.57981231537249,-2.183988566413319,-2.6869385699898825,0.0021433547106095097
ITLT,8,3,652,92.02453987730061,2,2,False,,,37.727982709047225,35.0,3394.8899999996065,-2.7279827090472253,False,0,0,5,4,0,2,17.0,0.9696182553635582,49.75384934059793,55.57981231537249,-1.1123209853546996,-1.3776209401009312,0.00022800385389578406
ITLT,8,4,302,198.67549668874173,5,2,False,,,93.24415345434716,100.0,5760.874999999942,6.755846545652844,False,0,0,6,4,0,2,17.0,0.9696182553635582,49.75384934059793,55.57981231537249,2.1761120048064413,2.7510346426161845,0.0005154893463932303
ITLT,8,5,425,141.1764705882353,4,0,False,,,68.5984388693479,80.0,4392.550000000512,11.401561130652098,False,0,0,7,4,0,2,17.0,0.9696182553635582,49.75384934059793,55.57981231537249,9.572195825056383,12.679442273739841,0.01150340868176679
ITLT,8,6,1000,60.0,1,1,False,,,6.875176187496734,0.0,6911.1849999999395,-6.875176187496734,False,0,0,8,4,0,2,17.0,0.9696182553635582,49.75384934059793,55.57981231537249,-1.8164570679491732,-2.239874493811733,0.0010649021690152703
ITLT,8,7,390,153.84615384615384,4,0,False,,,74.79787473312055,75.0,6890.179999999411,0.20212526687944887,False,0,0,9,4,0,2,17.0,0.9696182553635582,49.75384934059793,55.57981231537249,-2.319073810337102,-2.850741498027966,0.0017439359147647772
ITLT,8,6,774,77.51937984496124,2,1,False,,,25.354902613380577,18.0,3302.045000000333,-7.3549026133805775,False,0,0,10,4,0,2,17.0,0.9696182553635582,49.75384934059793,55.57981231537249,-4.358451595750239,-5.290430404026029,0.003678063342351465
ITLT,8,5,550,109.0909090909091,3,1,False,,,50.0,50.0,1072.079999999958,0.0,False,0,0,11,4,0,2,17.0,0.9696182553635582,49.75384934059793,55.57981231537249,0.24615065940206904,0.3074511747076277,3.4903710840940535e-06
ITLT,8,6,390,153.84615384615384,4,1,False,,,74.79787473312055,83.0,4363.715000000375,8.202125266879449,False,0,0,12,4,0,2,17.0,0.9696182553635582,49.75384934059793,55.57981231537249,5.680926189662898,7.341804288432344,0.004456088169313648
ITLT,8,2,504,119.04761904761905,3,0,False,,,56.30039424560527,50.0,807.399999999674,-6.300394245605268,False,0,0,13,4,0,2,17.0,0.9696182553635582,49.75384934059793,55.57981231537249,-6.757343934269805,-8.081899287177011,0.005422653166540102
ITLT,8,5,358,167.5977653631285,5,2,False,,,80.97360155738828,80.0,7955.1549999996205,-0.9736015573882781,False,0,0,14,4,0,2,17.0,0.9696182553635582,49.75384934059793,55.57981231537249,-4.183988566413319,-5.08414039059091,0.005915615596294837
ITLT,8,3,599,100.1669449081803,3,1,False,,,43.84378078116181,43.0,2092.740000000049,-0.8437807811618114,False,0,0,15,4,0,2,17.0,0.9696182553635582,49.75384934059793,55.57981231537249,0.08938083450837553,0.11153081195358472,7.250643533691924e-06
ITLT,8,5,918,65.359477124183,1,1,False,,,13.046873249910696,13.0,2916.9300000003423,-0.0468732499106963,False,0,0,16,4,0,2,17.0,0.9696182553635582,49.75384934059793,55.57981231537249,4.323107644124754,5.539421175842347,0.005665918165935089
ITLT,8,6,550,109.0909090909091,3,1,False,,,50.0,43.0,30234.27500000072,-7.0,False,0,0,17,4,0,2,17.0,0.9696182553635582,49.75384934059793,55.57981231537249,-6.753849340597931,-8.07789324444997,0.005015217116296428
ITLT,8,7,652,92.02453987730061,2,1,False,,,37.727982709047225,32.0,21561.64500000066,-5.727982709047225,False,0,0,18,4,0,2,17.0,0.9696182553635582,49.75384934059793,55.57981231537249,-4.1123209853547,-4.9992684732774455,0.002278984312755782
ITLT,8,4,599,100.1669449081803,3,2,False,,,43.84378078116181,49.0,6296.829999999318,5.156219218838189,False,0,0,19,4,0,2,17.0,0.9696182553635582,49.75384934059793,55.57981231537249,6.0893808345083755,7.889990005359062,0.0033678107834826
ITLT,8,2,710,84.50704225352112,2,0,False,,,31.580629700998873,34.0,91050.0700000003,2.4193702990011268,False,0,0,20,4,0,2,17.0,0.9696182553635582,49.75384934059793,55.57981231537249,4.72105354311865,6.064500895419469,0.002974378278331551
ITLT,8,3,358,167.5977653631285,5,1,False,,,80.97360155738828,93.0,7353.1849999999395,12.026398442611722,False,0,0,21,4,0,2,17.0,0.9696182553635582,49.75384934059793,55.57981231537249,8.81601143358668,11.621810283613335,0.014907250525950157
ITLT,8,2,843,71.17437722419929,1,0,False,,,19.194949373496982,3.0,6715.37000000081,-16.194949373496982,False,0,0,22,4,0,2,17.0,0.9696182553635582,49.75384934059793,55.57981231537249,-12.51107069686622,-14.446486382540087,0.036832857801826296
ITLT,8,7,329,182.370820668693,5,0,False,,,87.06720173383901,83.0,5581.454999999492,-4.067201733839013,False,0,0,23,4,0,2,17.0,0.9696182553635582,49.75384934059793,55.57981231537249,-7.957611649054371,-9.44755484386092,0.023363818539304235
ITLT,8,4,1000,60.0,1,0,False,,,6.875176187496734,0.0,3154.6749999996973,-6.875176187496734,False,0,0,24,4,0,2,17.0,0.9696182553635582,49.75384934059793,55.57981231537249,-1.8164570679491732,-2.239874493811733,0.0010649021690152703
ITLT,8,5,774,77.51937984496124,2,0,False,,,25.354902613380577,4.0,6159.259999999427,-21.354902613380577,False,0,0,25,4,0,2,17.0,0.9696182553635582,49.75384934059793,55.57981231537249,-18.35845159575024,-20.463328657222526,0.06274453028909822
ITLT,8,7,1000,60.0,1,0,False,,,6.875176187496734,0.0,4781.690000000759,-6.875176187496734,False,0,0,26,4,0,2,17.0,0.9696182553635582,49.75384934059793,55.57981231537249,-1.8164570679491732,-2.239874493811733,0.0010649021690152703
ITLT,8,4,463,129.58963282937364,4,2,False,,,62.42097125758927,69.0,4246.114999999874,6.579028742410728,False,0,0,27,4,0,2,17.0,0.9696182553635582,49.75384934059793,55.57981231537249,5.439045633973109,7.01849114150552,0.0027749699825411005
ITLT,8,3,918,65.359477124183,1,0,False,,,13.046873249910696,10.0,6342.499999999767,-3.0468732499106963,False,0,0,28,4,0,2,17.0,0.9696182553635582,49.75384934059793,55.57981231537249,1.3231076441247538,1.663763460039156,0.0005567613265305397
ITLT,8,6,329,182.370820668693,5,1,False,,,87.06720173383901,97.0,9083.415000000037,9.932798266160987,False,0,0,29,4,0,2,17.0,0.9696182553635582,49.75384934059793,55.57981231537249,6.042388350945629,7.826779293294521,0.007779270280705094
ITLT,8,3,463,129.58963282937364,4,0,False,,,62.42097125758927,64.0,10145.26500000013,1.5790287424107277,False,0,0,30,4,0,2,17.0,0.9696182553635582,49.75384934059793,55.57981231537249,0.4390456339731088,0.5490445240293961,2.992262353361479e-06
ITLT,8,4,710,84.50704225352112,2,2,False,,,31.580629700998873,29.0,3605.540000000503,-2.5806297009988732,False,0,1,31,4,0,2,17.0,0.9696182553635582,49.75384934059793,55.57981231537249,-0.27894645688135,-0.3472754175623744,3.266087313703114e-05
ITLT,8,3,1000,60.0,1,2,False,,,6.875176187496734,1.0,4701.364999999874,-5.875176187496734,False,0,1,32,4,0,2,17.0,0.9696182553635582,49.75384934059793,55.57981231537249,-0.8164570679491732,-1.0130539565120127,0.00017725832272986688
ITLT,8,5,710,84.50704225352112,2,1,False,,,31.580629700998873,42.0,4166.914999999688,10.419370299001127,False,0,1,33,4,0,2,17.0,0.9696182553635582,49.75384934059793,55.57981231537249,12.72105354311865,17.19240138961296,0.022783604871566193
ITLT,8,3,329,182.370820668693,5,0,False,,,87.06720173383901,98.0,8126.639999999548,10.932798266160987,False,0,1,34,4,0,2,17.0,0.9696182553635582,49.75384934059793,55.57981231537249,7.042388350945629,9.179929226592494,0.011112997670444666
ITLT,8,5,843,71.17437722419929,1,2,False,,,19.194949373496982,13.0,2832.674999999581,-6.194949373496982,False,0,1,35,4,0,2,17.0,0.9696182553635582,49.75384934059793,55.57981231537249,-2.51107069686622,-3.083080554210142,0.0015155569819109932
ITLT,8,7,774,77.51937984496124,2,2,False,,,25.354902613380577,34.0,4883.514999999548,8.645097386619423,False,0,1,36,4,0,2,17.0,0.9696182553635582,49.75384934059793,55.57981231537249,11.641548404249761,15.625244638105167,0.024434293468566903
ITLT,8,5,302,198.67549668874173,5,1,False,,,93.24415345434716,97.0,7587.470000000438,3.755846545652844,False,0,1,37,4,0,2,17.0,0.9696182553635582,49.75384934059793,55.57981231537249,-0.8238879951935587,-1.0222269101065584,0.0012414405601462774
ITLT,8,4,504,119.04761904761905,3,0,False,,,56.30039424560527,56.0,3130.390000000247,-0.3003942456052684,False,0,1,38,4,0,2,17.0,0.9696182553635582,49.75384934059793,55.57981231537249,-0.7573439342698052,-0.9400526913734876,0.00016665205210905485
ITLT,8,7,425,141.1764705882353,4,1,False,,,68.5984388693479,55.0,3596.609999999637,-13.598438869347902,False,0,1,39,4,0,2,17.0,0.9696182553635582,49.75384934059793,55.57981231537249,-15.427804174943617,-17.502590566033067,0.03772947842880938
ITLT,8,4,918,65.359477124183,1,1,False,,,13.046873249910696,20.0,2199.3299999994924,6.953126750089304,False,0,1,40,4,0,2,17.0,0.9696182553635582,49.75384934059793,55.57981231537249,11.323107644124754,15.166968102191932,0.03835753608609788
ITLT,8,6,710,84.50704225352112,2,2,False,,,31.580629700998873,36.0,2979.3499999996275,4.419370299001127,False,0,1,41,4,0,2,17.0,0.9696182553635582,49.75384934059793,55.57981231537249,6.72105354311865,8.743273607313402,0.006184091225302895
ITLT,8,5,504,119.04761904761905,3,2,False,,,56.30039424560527,53.0,2128.474999999511,-3.3003942456052684,False,0,1,42,4,0,2,17.0,0.9696182553635582,49.75384934059793,55.57981231537249,-3.757343934269805,-4.577768767853328,0.001872641010430892
ITLT,8,7,843,71.17437722419929,1,1,False,,,19.194949373496982,35.0,4215.665000000619,15.805050626503018,False,0,1,43,4,0,2,17.0,0.9696182553635582,49.75384934059793,55.57981231537249,19.48892930313378,27.513290717016734,0.08859257394440898
ITLT,8,3,550,109.0909090909091,3,2,False,,,50.0,50.0,2567.450000000419,0.0,False,0,1,44,4,0,2,17.0,0.9696182553635582,49.75384934059793,55.57981231537249,0.24615065940206904,0.3074511747076277,3.4903710840940535e-06
ITLT,8,6,843,71.17437722419929,1,2,False,,,19.194949373496982,20.0,2763.385000000242,0.805050626503018,False,0,1,45,4,0,2,17.0,0.9696182553635582,49.75384934059793,55.57981231537249,4.48892930313378,5.757902080771012,0.004646052051707622
ITLT,8,2,652,92.02453987730061,2,2,False,,,37.727982709047225,45.0,3035.1950000004144,7.272017290952775,False,0,1,46,4,0,2,17.0,0.9696182553635582,49.75384934059793,55.57981231537249,8.8876790146453,11.721620337399447,0.008779048676062861
ITLT,8,6,302,198.67549668874173,5,0,False,,,93.24415345434716,100.0,5957.924999999697,6.755846545652844,False,0,1,47,4,0,2,17.0,0.9696182553635582,49.75384934059793,55.57981231537249,2.1761120048064413,2.7510346426161845,0.0005154893463932303
ITLT,8,3,710,84.50704225352112,2,1,False,,,31.580629700998873,36.0,2265.8849999997765,4.419370299001127,False,0,1,48,4,0,2,17.0,0.9696182553635582,49.75384934059793,55.57981231537249,6.72105354311865,8.743273607313402,0.006184091225302895
ITLT,8,7,302,198.67549668874173,5,1,False,,,93.24415345434716,100.0,2565.810000000056,6.755846545652844,False,0,1,49,4,0,2,17.0,0.9696182553635582,49.75384934059793,55.57981231537249,2.1761120048064413,2.7510346426161845,0.0005154893463932303
ITLT,8,5,463,129.58963282937364,4,2,False,,,62.42097125758927,62.0,2557.2949999996927,-0.42097125758927234,False,0,1,50,4,0,2,17.0,0.9696182553635582,49.75384934059793,55.57981231537249,-1.5609543660268912,-1.9278722336049912,0.0005519180193045252
ITLT,8,2,302,198.67549668874173,5,1,False,,,93.24415345434716,97.0,3695.0299999999115,3.755846545652844,False,0,1,51,4,0,2,17.0,0.9696182553635582,49.75384934059793,55.57981231537249,-0.8238879951935587,-1.0222269101065584,0.0012414405601462774
ITLT,8,6,599,100.1669449081803,3,2,False,,,43.84378078116181,48.0,4832.97500000021,4.156219218838189,False,0,1,52,4,0,2,17.0,0.9696182553635582,49.75384934059793,55.57981231537249,5.0893808345083755,6.552827270290077,0.0022955519106272167
ITLT,8,3,425,141.1764705882353,4,2,False,,,68.5984388693479,64.0,3015.195000000065,-4.598438869347902,False,0,1,53,4,0,2,17.0,0.9696182553635582,49.75384934059793,55.57981231537249,-6.427804174943617,-7.703360858072381,0.0073449485808792046
ITLT,8,7,550,109.0909090909091,3,1,False,,,50.0,50.0,1455.7400000002235,0.0,False,0,1,54,4,0,2,17.0,0.9696182553635582,49.75384934059793,55.57981231537249,0.24615065940206904,0.3074511747076277,3.4903710840940535e-06
ITLT,8,6,425,141.1764705882353,4,2,False,,,68.5984388693479,55.0,5665.200000000419,-13.598438869347902,False,0,1,55,4,0,2,17.0,0.9696182553635582,49.75384934059793,55.57981231537249,-15.427804174943617,-17.502590566033067,0.03772947842880938
ITLT,8,2,1000,60.0,1,2,False,,,6.875176187496734,0.0,2520.4050000002608,-6.875176187496734,False,0,1,56,4,0,2,17.0,0.9696182553635582,49.75384934059793,55.57981231537249,-1.8164570679491732,-2.239874493811733,0.0010649021690152703
ITLT,8,4,425,141.1764705882353,4,1,False,,,68.5984388693479,66.0,2560.125,-2.598438869347902,False,0,1,57,4,0,2,17.0,0.9696182553635582,49.75384934059793,55.57981231537249,-4.427804174943617,-5.37231025918539,0.0037924779497967116
ITLT,8,2,599,100.1669449081803,3,2,False,,,43.84378078116181,46.0,3524.5000000004657,2.1562192188381886,False,0,1,58,4,0,2,17.0,0.9696182553635582,49.75384934059793,55.57981231537249,3.0893808345083755,3.9280138303569614,0.0007656327843531273
ITLT,8,4,329,182.370820668693,5,1,False,,,87.06720173383901,95.0,6052.149999999674,7.932798266160987,False,0,1,59,4,0,2,17.0,0.9696182553635582,49.75384934059793,55.57981231537249,4.042388350945629,5.170583425719874,0.0028905792645103224
ITLT,8,2,425,141.1764705882353,4,0,False,,,68.5984388693479,66.0,2513.3249999999534,-2.598438869347902,False,0,1,60,4,0,2,17.0,0.9696182553635582,49.75384934059793,55.57981231537249,-4.427804174943617,-5.37231025918539,0.0037924779497967116
ITLT,8,5,1000,60.0,1,0,False,,,6.875176187496734,0.0,4982.954999999609,-6.875176187496734,False,0,2,61,4,0,2,17.0,0.9696182553635582,49.75384934059793,55.57981231537249,-1.8164570679491732,-2.239874493811733,0.0010649021690152703
ITLT,8,6,358,167.5977653631285,5,2,False,,,80.97360155738828,79.0,4829.780000000028,-1.9736015573882781,False,0,2,62,4,0,2,17.0,0.9696182553635582,49.75384934059793,55.57981231537249,-5.183988566413319,-6.260504856195539,0.008504780948646802
ITLT,8,4,550,109.0909090909091,3,1,False,,,50.0,49.0,7359.255000000354,-1.0,False,0,2,63,4,0,2,17.0,0.9696182553635582,49.75384934059793,55.57981231537249,-0.753849340597931,-0.935735387399865,0.0001373172777489117
ITLT,8,5,329,182.370820668693,5,0,False,,,87.06720173383901,100.0,13703.314999999944,12.932798266160987,False,0,2,64,4,0,2,17.0,0.9696182553635582,49.75384934059793,55.57981231537249,9.042388350945629,11.93738542192294,0.01955921621320819
ITLT,8,2,774,77.51937984496124,2,1,False,,,25.354902613380577,15.0,4575.340000000317,-10.354902613380577,False,0,2,65,4,0,2,17.0,0.9696182553635582,49.75384934059793,55.57981231537249,-7.358451595750239,-8.76839029877914,0.010267235892518357
ITLT,8,5,599,100.1669449081803,3,0,False,,,43.84378078116181,43.0,3188.374999999767,-0.8437807811618114,False,0,2,66,4,0,2,17.0,0.9696182553635582,49.75384934059793,55.57981231537249,0.08938083450837553,0.11153081195358472,7.250643533691924e-06
ITLT,8,2,329,182.370820668693,5,0,False,,,87.06720173383901,85.0,3532.0800000000745,-2.0672017338390134,False,0,2,67,4,0,2,17.0,0.9696182553635582,49.75384934059793,55.57981231537249,-5.957611649054371,-7.160555734529199,0.014022399449223994
ITLT,8,7,504,119.04761904761905,3,0,False,,,56.30039424560527,50.0,1484.320000000298,-6.300394245605268,False,0,2,68,4,0,2,17.0,0.9696182553635582,49.75384934059793,55.57981231537249,-6.757343934269805,-8.081899287177011,0.005422653166540102
ITLT,8,5,652,92.02453987730061,2,2,False,,,37.727982709047225,35.0,4210.65000000014,-2.7279827090472253,False,0,2,69,4,0,2,17.0,0.9696182553635582,49.75384934059793,55.57981231537249,-1.1123209853546996,-1.3776209401009312,0.00022800385389578406
ITLT,8,6,463,129.58963282937364,4,0,False,,,62.42097125758927,62.0,2597.9500000001863,-0.42097125758927234,False,0,2,70,4,0,2,17.0,0.9696182553635582,49.75384934059793,55.57981231537249,-1.5609543660268912,-1.9278722336049912,0.0005519180193045252
ITLT,8,2,918,65.359477124183,1,1,False,,,13.046873249910696,2.0,3325.66500000027,-11.046873249910696,False,0,2,71,4,0,2,17.0,0.9696182553635582,49.75384934059793,55.57981231537249,-6.676892355875246,-7.989628997441546,0.013043516982641135
ITLT,8,4,652,92.02453987730061,2,0,False,,,37.727982709047225,45.0,5012.789999999804,7.272017290952775,False,0,2,72,4,0,2,17.0,0.9696182553635582,49.75384934059793,55.57981231537249,8.8876790146453,11.721620337399447,0.008779048676062861
ITLT,8,6,918,65.359477124183,1,0,False,,,13.046873249910696,22.0,2692.7299999997485,8.953126750089304,False,0,2,73,4,0,2,17.0,0.9696182553635582,49.75384934059793,55.57981231537249,13.323107644124754,18.07563338472504,0.053038920281972095
ITLT,8,5,390,153.84615384615384,4,1,False,,,74.79787473312055,90.0,4765.409999999916,15.202125266879449,False,0,2,74,4,0,2,17.0,0.9696182553635582,49.75384934059793,55.57981231537249,12.680926189662898,17.133768716814725,0.026148194670702677
ITLT,8,4,843,71.17437722419929,1,2,False,,,19.194949373496982,20.0,2846.540000000503,0.805050626503018,False,0,2,75,4,0,2,17.0,0.9696182553635582,49.75384934059793,55.57981231537249,4.48892930313378,5.757902080771012,0.004646052051707622
ITLT,8,3,774,77.51937984496124,2,0,False,,,25.354902613380577,13.0,2456.6950000007637,-12.354902613380577,False,0,2,76,4,0,2,17.0,0.9696182553635582,49.75384934059793,55.57981231537249,-9.358451595750239,-11.015782145858417,0.016498783504705457
ITLT,8,2,390,153.84615384615384,4,1,False,,,74.79787473312055,95.0,3504.464999999851,20.20212526687945,False,0,2,77,4,0,2,17.0,0.9696182553635582,49.75384934059793,55.57981231537249,17.680926189662898,24.670296462099543,0.05268196975949986
ITLT,8,3,843,71.17437722419929,1,1,False,,,19.194949373496982,0.0,10624.354999999981,-19.194949373496982,False,0,2,78,4,0,2,17.0,0.9696182553635582,49.75384934059793,55.57981231537249,-15.51107069686622,-17.588214198283293,0.05655621292263919
ITLT,8,6,652,92.02453987730061,2,0,False,,,37.727982709047225,43.0,5395.155000000261,5.272017290952775,False,0,2,79,4,0,2,17.0,0.9696182553635582,49.75384934059793,55.57981231537249,6.8876790146453,8.96947928112477,0.005174975545266318
ITLT,8,4,390,153.84615384615384,4,0,False,,,74.79787473312055,100.0,12641.464999999851,25.20212526687945,False,0,2,80,4,0,2,17.0,0.9696182553635582,49.75384934059793,55.57981231537249,22.680926189662898,32.69173347887522,0.08841525593337263
ITLT,8,6,504,119.04761904761905,3,0,False,,,56.30039424560527,53.0,2108.1450000002515,-3.3003942456052684,False,0,2,81,4,0,2,17.0,0.9696182553635582,49.75384934059793,55.57981231537249,-3.757343934269805,-4.577768767853328,0.001872641010430892
ITLT,8,3,390,153.84615384615384,4,1,False,,,74.79787473312055,68.0,1972.0600000000559,-6.797874733120551,False,0,2,82,4,0,2,17.0,0.9696182553635582,49.75384934059793,55.57981231537249,-9.319073810337102,-10.972072297132348,0.018689775970693285
ITLT,8,7,358,167.5977653631285,5,2,False,,,80.97360155738828,80.0,3131.39499999932,-0.9736015573882781,False,0,2,83,4,0,2,17.0,0.9696182553635582,49.75384934059793,55.57981231537249,-4.183988566413319,-5.08414039059091,0.005915615596294837
ITLT,8,2,550,109.0909090909091,3,1,False,,,50.0,47.0,2241.0249999992084,-3.0,False,0,2,84,4,0,2,17.0,0.9696182553635582,49.75384934059793,55.57981231537249,-2.753849340597931,-3.3760762008129306,0.0009871051480154914
ITLT,8,7,463,129.58963282937364,4,2,False,,,62.42097125758927,53.0,8861.670000000391,-9.420971257589272,False,0,2,85,4,0,2,17.0,0.9696182553635582,49.75384934059793,55.57981231537249,-10.560954366026891,-12.340291546658902,0.014744510186841883
ITLT,8,4,358,167.5977653631285,5,0,False,,,80.97360155738828,98.0,2402.4650000003166,17.026398442611722,False,0,2,86,4,0,2,17.0,0.9696182553635582,49.75384934059793,55.57981231537249,13.81601143358668,18.803691985167504,0.03945661893801966
ITLT,8,7,710,84.50704225352112,2,0,False,,,31.580629700998873,30.0,5062.170000000158,-1.5806297009988732,False,0,2,87,4,0,2,17.0,0.9696182553635582,49.75384934059793,55.57981231537249,0.72105354311865,0.9032959015985155,4.013978706349621e-05
ITLT,8,3,504,119.04761904761905,3,0,False,,,56.30039424560527,53.0,2654.7700000000186,-3.3003942456052684,False,0,2,88,4,0,2,17.0,0.9696182553635582,49.75384934059793,55.57981231537249,-3.757343934269805,-4.577768767853328,0.001872641010430892
ITLT,8,7,918,65.359477124183,1,2,False,,,13.046873249910696,6.0,2879.100000000093,-7.046873249910696,False,0,2,89,4,0,2,17.0,0.9696182553635582,49.75384934059793,55.57981231537249,-2.676892355875246,-3.2832972363379733,0.0020526529919453417
ITLT,8,3,302,198.67549668874173,5,2,False,,,93.24415345434716,100.0,2253.6850000005215,6.755846545652844,False,0,2,90,4,0,2,17.0,0.9696182553635582,49.75384934059793,55.57981231537249,2.1761120048064413,2.7510346426161845,0.0005154893463932303
ITLT,10,2,550,109.0909090909091,3,2,True,,,50.0,10.0,5975.435000000289,-40.0,False,1,0,1,6,0,0,17.0,0.9149811558168228,46.03931256236701,42.90667757186711,-36.03931256236701,-44.13357043471487,0.07006065903153173
ITLT,10,7,918,65.359477124183,1,2,True,,,13.046873249910696,0.0,2723.265000000538,-13.046873249910696,False,1,0,2,6,0,0,17.0,0.9149811558168228,46.03931256236701,42.90667757186711,-14.328594667598626,-20.663750404354236,0.032197123133430254
ITLT,10,2,425,141.1764705882353,4,2,True,,,68.5984388693479,68.0,3364.6150000022317,-0.5984388693479019,False,1,0,3,6,0,0,17.0,0.9149811558168228,46.03931256236701,42.90667757186711,6.000743039489173,10.179490069617454,0.0019081118885161108
ITLT,10,7,710,84.50704225352112,2,2,True,,,31.580629700998873,22.0,2565.6249999992724,-9.580629700998873,False,1,0,4,6,0,0,17.0,0.9149811558168228,46.03931256236701,42.90667757186711,-8.233032912445672,-12.453726318905444,0.0056469622330665575
ITLT,10,6,843,71.17437722419929,1,2,True,,,19.194949373496982,0.0,2396.339999999327,-19.194949373496982,False,1,0,5,6,0,0,17.0,0.9149811558168228,46.03931256236701,42.90667757186711,-19.604465066038856,-27.145470142560594,0.048349166063394636
ITLT,10,5,390,153.84615384615384,4,0,True,,,74.79787473312055,100.0,2234.9500000018743,25.20212526687945,False,1,0,6,6,0,0,17.0,0.9149811558168228,46.03931256236701,42.90667757186711,32.68079912480192,69.54539874128923,0.09783829740486753
ITLT,10,3,843,71.17437722419929,1,1,True,,,19.194949373496982,16.0,1482.785000000149,-3.194949373496982,False,1,0,7,6,0,0,17.0,0.9149811558168228,46.03931256236701,42.90667757186711,-3.6044650660388555,-5.6566384649746775,0.0016552334166477106
ITLT,10,7,599,100.1669449081803,3,0,True,,,43.84378078116181,47.0,7906.685000001802,3.1562192188381886,False,1,0,8,6,0,0,17.0,0.9149811558168228,46.03931256236701,42.90667757186711,6.243545699321423,10.612508910620681,0.001786192885979519
ITLT,10,4,774,77.51937984496124,2,2,True,,,25.354902613380577,7.0,2427.015000001178,-18.354902613380577,False,1,0,9,6,0,0,17.0,0.9149811558168228,46.03931256236701,42.90667757186711,-17.890527616468123,-25.100069430637227,0.03209406938517606
ITLT,10,7,302,198.67549668874173,5,0,True,,,93.24415345434716,100.0,2943.1100000001024,6.755846545652844,False,1,0,10,6,0,0,17.0,0.9149811558168228,46.03931256236701,42.90667757186711,16.851428454952668,31.28900107658806,0.046715093575131365
ITLT,10,6,550,109.0909090909091,3,0,True,,,50.0,50.0,1235.6599999984028,0.0,False,1,0,11,6,0,0,17.0,0.9149811558168228,46.03931256236701,42.90667757186711,3.9606874376329912,6.607530347211972,0.0005640330266240163
ITLT,10,4,358,167.5977653631285,5,1,True,,,80.97360155738828,80.0,1751.465000001248,-0.9736015573882781,False,1,0,12,6,0,0,17.0,0.9149811558168228,46.03931256236701,42.90667757186711,7.381200732386191,12.664201891923584,0.004629703637838844
ITLT,10,3,652,92.02453987730061,2,0,True,,,37.727982709047225,21.0,1465.0299999993294,-16.727982709047225,False,1,0,13,6,0,0,17.0,0.9149811558168228,46.03931256236701,42.90667757186711,-14.50828278118123,-20.893715224789275,0.014123211701053313
ITLT,10,4,918,65.359477124183,1,1,True,,,13.046873249910696,8.0,3374.8799999994226,-5.046873249910696,False,1,0,14,6,0,0,17.0,0.9149811558168228,46.03931256236701,42.90667757186711,-6.328594667598626,-9.718438954719812,0.006170427375148773
ITLT,10,6,302,198.67549668874173,5,1,True,,,93.24415345434716,80.0,2529.5549999973737,-13.244153454347156,False,1,0,15,6,0,0,17.0,0.9149811558168228,46.03931256236701,42.90667757186711,-3.148571545047332,-4.9592486833493785,0.00444005504101256
ITLT,10,4,599,100.1669449081803,3,0,True,,,43.84378078116181,58.0,5004.049999999523,14.156219218838189,False,1,0,16,6,0,0,17.0,0.9149811558168228,46.03931256236701,42.90667757186711,17.243545699321423,32.12329891572864,0.015318001739713896
ITLT,10,2,1000,60.0,1,0,True,,,6.875176187496734,0.0,1809.5150000008289,-6.875176187496734,False,1,0,17,6,0,0,17.0,0.9149811558168228,46.03931256236701,42.90667757186711,-9.03245434903392,-13.57707015724863,0.015507421539275368
ITLT,10,5,504,119.04761904761905,3,1,True,,,56.30039424560527,54.0,3533.0900000008405,-2.3003942456052684,False,1,0,18,6,0,0,17.0,0.9149811558168228,46.03931256236701,42.90667757186711,2.5541077481963512,4.212406834975229,0.00016934195607602216
ITLT,10,4,425,141.1764705882353,4,0,True,,,68.5984388693479,61.0,1777.9699999991572,-7.598438869347902,False,1,0,19,6,0,0,17.0,0.9149811558168228,46.03931256236701,42.90667757186711,-0.9992569605108272,-1.6013162703559705,0.0003283030725560625
ITLT,10,2,358,167.5977653631285,5,1,True,,,80.97360155738828,69.0,2495.8850000003004,-11.973601557388278,False,1,0,20,6,0,0,17.0,0.9149811558168228,46.03931256236701,42.90667757186711,-3.6187992676138094,-5.6784826147357395,0.0030508111815157005
ITLT,10,5,843,71.17437722419929,1,2,True,,,19.194949373496982,15.0,2596.5649999998277,-4.194949373496982,False,1,0,21,6,0,0,17.0,0.9149811558168228,46.03931256236701,42.90667757186711,-4.6044650660388555,-7.168488384705847,0.0026920067681195335
ITLT,10,3,504,119.04761904761905,3,2,True,,,56.30039424560527,50.0,842.6849999996484,-6.300394245605268,False,1,0,22,6,0,0,17.0,0.9149811558168228,46.03931256236701,42.90667757186711,-1.4458922518036488,-2.3087358272821206,0.00027642283824471416
ITLT,10,5,329,182.370820668693,5,2,True,,,87.06720173383901,83.0,2641.234999999113,-4.067201733839013,False,1,0,23,6,0,0,17.0,0.9149811558168228,46.03931256236701,42.90667757186711,5.152077971929316,8.679238896434898,0.0021938493839657783
ITLT,10,2,710,84.50704225352112,2,2,True,,,31.580629700998873,41.0,4505.675000000338,9.419370299001127,False,1,0,24,6,0,0,17.0,0.9149811558168228,46.03931256236701,42.90667757186711,10.766967087554328,18.998154050254676,0.008550926656282773
ITLT,10,7,390,153.84615384615384,4,0,True,,,74.79787473312055,65.0,2523.7149999993853,-9.797874733120551,False,1,0,25,6,0,0,17.0,0.9149811558168228,46.03931256236701,42.90667757186711,-2.319200875198078,-3.677296704256465,0.0012085352767403175
ITLT,10,3,329,182.370820668693,5,2,True,,,87.06720173383901,83.0,1822.3450000005541,-4.067201733839013,False,1,0,26,6,0,0,17.0,0.9149811558168228,46.03931256236701,42.90667757186711,5.152077971929316,8.679238896434898,0.0021938493839657783
ITLT,10,6,652,92.02453987730061,2,2,True,,,37.727982709047225,29.0,2115.0750000015832,-8.727982709047225,False,1,0,27,6,0,0,17.0,0.9149811558168228,46.03931256236701,42.90667757186711,-6.508282781181229,-9.980129960788174,0.003038549152263647
