trial_type,trial_index,time_elapsed,internal_node_id,subject,tap_condition,experiment,code_version,tap_times,stimulus,key_press,event,button_pressed,response,valid_key_press,valid_tap_times,pref_rate,test_correct,test_incorrect,test_skipped,extreme_responses,pearsonr,intercept,slope
audio-multiple-response,17,123211,0.0-6.0,2,True,ITLT,v1.0,"[336, 533, 699, 827, 1115, 1269, 1408, 1547, 1691, 1845, 1989, 2160, 2341, 2491, 2645, 2795, 2971, 3131, 3419, 3568, 3765, 3877, 4048, 4197, 4379, 4507, 4645, 4805, 4976, 5125, 5301, 5461, 5611, 5776, 5941, 6107, 6267, 6437, 6608, 6795, 6955, 7115, 7264, 7440, 7605, 7781, 7904, 8128, 8251, 8443, 8613, 8789, 8955, 9136, 9296, 9445, 9589, 9728, 9899, 10059, 10229, 10411, 10560, 10725, 10885, 11029, 11157, 11296, 11435, 11600, 11749, 11904, 12075, 12256, 12592, 12784, 12955, 13131, 13301, 13477, 13643, 13803, 13995, 14171, 14347, 14507, 14683, 14859]",,"[74, 74, 74, 74, 74, 74, 74, 74, 74, 74, 74, 74, 74, 74, 74, 74, 74, 74, 74, 74, 74, 74, 74, 74, 74, 74, 74, 74, 74, 74, 74, 74, 74, 74, 74, 74, 74, 74, 74, 74, 74, 74, 74, 74, 74, 74, 74, 74, 74, 74, 74, 74, 74, 74, 74, 74, 74, 74, 74, 74, 74, 74, 74, 74, 74, 74, 74, 74, 74, 74, 74, 74, 74, 74, 74, 74, 74, 74, 74, 74, 74, 74, 74, 74, 74, 74, 74, 74]",tapping_test,,,"[74 74 74 74 74 74 74 74 74 74 74 74 74 74 74 74 74 74 74 74 74 74 74 74
 74 74 74 74 74 74 74 74 74 74 74 74 74 74 74 74 74 74 74 74 74 74 74 74
 74 74 74 74 74 74 74 74 74 74 74 74 74 74 74 74 74 74 74 74 74 74 74 74
 74 74 74 74 74 74 74 74 74 74 74 74 74 74 74 74]","[  336   533   699   827  1115  1269  1408  1547  1691  1845  1989  2160
  2341  2491  2645  2795  2971  3131  3419  3568  3765  3877  4048  4197
  4379  4507  4645  4805  4976  5125  5301  5461  5611  5776  5941  6107
  6267  6437  6608  6795  6955  7115  7264  7440  7605  7781  7904  8128
  8251  8443  8613  8789  8955  9136  9296  9445  9589  9728  9899 10059
 10229 10411 10560 10725 10885 11029 11157 11296 11435 11600 11749 11904
 12075 12256 12592 12784 12955 13131 13301 13477 13643 13803 13995 14171
 14347 14507 14683 14859]",165.0,6,0,0,18.0,0.934153993555676,48.989465613196316,39.72248949784459
audio-multiple-response,17,144605,0.0-6.0,3,True,ITLT,v1.0,"[1285, 2075, 2853, 3653, 4501, 5296, 6069, 6912, 7792, 8624, 9451, 10293, 11184, 11984, 12848, 13685, 14480]",,"[74, 74, 74, 74, 74, 74, 74, 74, 74, 74, 74, 74, 74, 74, 74, 74, 74]",tapping_test,,,[74 74 74 74 74 74 74 74 74 74 74 74 74 74 74 74 74],"[ 1285  2075  2853  3653  4501  5296  6069  6912  7792  8624  9451 10293
 11184 11984 12848 13685 14480]",829.5,6,0,0,19.0,0.9574962786741719,52.354007835092645,47.93101676410119
audio-multiple-response,17,94240,0.0-6.0,7,True,ITLT,v1.0,"[632, 1131, 1571, 2061, 2520, 2981, 3480, 3952, 4432, 4941, 5371, 5800, 6301, 6771, 7251, 7701, 8192, 8691, 9181, 9640, 10101, 10581, 11080, 11552, 12011, 12472, 12941, 13392]",,"[74, 74, 74, 74, 74, 74, 74, 74, 74, 74, 74, 74, 74, 74, 74, 74, 74, 74, 74, 74, 74, 74, 74, 74, 74, 74, 74, 74]",tapping_test,,,"[74 74 74 74 74 74 74 74 74 74 74 74 74 74 74 74 74 74 74 74 74 74 74 74
 74 74 74 74]","[  632  1131  1571  2061  2520  2981  3480  3952  4432  4941  5371  5800
  6301  6771  7251  7701  8192  8691  9181  9640 10101 10581 11080 11552
 12011 12472 12941 13392]",472.0,4,2,0,26.0,0.9335188222468244,47.19491477182055,54.670525379559805
audio-multiple-response,17,125323,0.0-6.0,8,False,ITLT,v1.0,"[560, 1611, 2731, 3779, 4859, 5979, 7100, 8231, 9361, 10530, 11610, 12751, 13839, 14980]",,"[70, 70, 70, 70, 70, 70, 70, 70, 70, 70, 70, 70, 70, 70]",tapping_test,,,[70 70 70 70 70 70 70 70 70 70 70 70 70 70],"[  560  1611  2731  3779  4859  5979  7100  8231  9361 10530 11610 12751
 13839 14980]",1120.0,4,0,2,17.0,0.9696182526474164,49.753849340597945,55.57981231537247
audio-multiple-response,17,142066,0.0-6.0,10,True,ITLT,v1.0,"[4949, 5581, 6221, 8120, 12011, 12600, 13229, 13821, 14421]",,"[74, 74, 74, 74, 74, 74, 74, 74, 74]",tapping_test,,,[74 74 74 74 74 74 74 74 74],[ 4949  5581  6221  8120 12011 12600 13229 13821 14421],630.5,6,0,0,17.0,0.9149811520628217,46.03931256236699,42.90667757186711
audio-multiple-response,17,161027,0.0-6.0,11,False,ITLT,v1.0,"[693, 1579, 2533, 3531, 4512, 5488, 6411, 7360, 8267, 9173, 10091, 10981, 11856, 12752, 13664, 14592]",,"[74, 74, 74, 74, 74, 74, 74, 74, 74, 74, 74, 74, 74, 74, 74, 74]",tapping_test,,,[74 74 74 74 74 74 74 74 74 74 74 74 74 74 74 74],"[  693  1579  2533  3531  4512  5488  6411  7360  8267  9173 10091 10981
 11856 12752 13664 14592]",918.0,6,0,0,25.0,0.9426785420596022,53.155989578768256,50.9934189058318
audio-multiple-response,17,133802,0.0-6.0,12,True,ITLT,v1.0,"[600, 1461, 2312, 3152, 4061, 4920, 5821, 6712, 7611, 8461, 9381, 10232, 11120, 12000, 12880, 13781, 14632]",,"[70, 70, 70, 70, 70, 70, 70, 70, 70, 70, 70, 70, 70, 70, 70, 70, 70]",tapping_test,,,[70 70 70 70 70 70 70 70 70 70 70 70 70 70 70 70 70],"[  600  1461  2312  3152  4061  4920  5821  6712  7611  8461  9381 10232
 11120 12000 12880 13781 14632]",880.0,3,3,0,53.0,0.9210132130928624,48.586612299834854,63.475422191333166
audio-multiple-response,17,106538,0.0-6.0,14,True,ITLT,v1.0,"[181, 901, 1568, 2224, 2864, 3467, 4011, 4597, 5173, 5685, 6272, 6789, 7413, 7904, 8501, 9024, 9733, 10293, 10864, 11424, 11973, 12597, 13115, 13664, 14309, 14795]",,"[74, 74, 74, 74, 74, 74, 74, 74, 74, 74, 74, 74, 74, 74, 74, 74, 74, 74, 74, 74, 74, 74, 74, 74, 74, 74]",tapping_test,,,"[74 74 74 74 74 74 74 74 74 74 74 74 74 74 74 74 74 74 74 74 74 74 74 74
 74 74]","[  181   901  1568  2224  2864  3467  4011  4597  5173  5685  6272  6789
  7413  7904  8501  9024  9733 10293 10864 11424 11973 12597 13115 13664
 14309 14795]",576.0,6,0,0,27.0,0.8624647737458395,58.67641717627845,44.60423677758948
audio-multiple-response,17,171355,0.0-6.0,13,False,ITLT,v1.0,"[693, 1227, 1787, 2432, 2976, 3547, 4048, 4587, 5099, 5653, 6139, 6645, 7157, 7771, 8267, 8747, 9275, 9765, 10283, 10859, 11381, 11909, 12416, 12923, 13461, 13995, 14501]",,"[74, 74, 74, 74, 74, 74, 74, 74, 74, 74, 74, 74, 74, 74, 74, 74, 74, 74, 74, 74, 74, 74, 74, 74, 74, 74, 74]",tapping_test,,,"[74 74 74 74 74 74 74 74 74 74 74 74 74 74 74 74 74 74 74 74 74 74 74 74
 74 74 74]","[  693  1227  1787  2432  2976  3547  4048  4587  5099  5653  6139  6645
  7157  7771  8267  8747  9275  9765 10283 10859 11381 11909 12416 12923
 13461 13995 14501]",525.0,6,0,0,25.0,0.9212952632329928,49.50541147764749,44.1727730744757
audio-multiple-response,17,151145,0.0-6.0,15,True,ITLT,v1.0,"[837, 1664, 2443, 3232, 4048, 4837, 5589, 6379, 7237, 8032, 8789, 9563, 10405, 11200, 11931, 12811, 13536, 14304]",,"[74, 74, 74, 74, 74, 74, 74, 74, 74, 74, 74, 74, 74, 74, 74, 74, 74, 74]",tapping_test,,,[74 74 74 74 74 74 74 74 74 74 74 74 74 74 74 74 74 74],"[  837  1664  2443  3232  4048  4837  5589  6379  7237  8032  8789  9563
 10405 11200 11931 12811 13536 14304]",789.0,5,0,1,12.0,0.8966136816987865,47.79318884871719,46.65079067193372
audio-multiple-response,17,113947,0.0-6.0,16,True,ITLT,v1.0,"[572, 1112, 1721, 2310, 2882, 3463, 4011, 4641, 5222, 5811, 6371, 6922, 7483, 8072, 8612, 9213, 9773, 10321, 10890, 11442, 11900, 12411, 12992, 13592, 14170, 14692]",,"[74, 74, 74, 74, 74, 74, 74, 74, 74, 74, 74, 74, 74, 74, 74, 74, 74, 74, 74, 74, 74, 74, 74, 74, 74, 74]",tapping_test,,,"[74 74 74 74 74 74 74 74 74 74 74 74 74 74 74 74 74 74 74 74 74 74 74 74
 74 74]","[  572  1112  1721  2310  2882  3463  4011  4641  5222  5811  6371  6922
  7483  8072  8612  9213  9773 10321 10890 11442 11900 12411 12992 13592
 14170 14692]",569.0,6,0,0,34.0,0.9567051008034451,46.19862882118787,57.40930175937996
audio-multiple-response,17,377446,0.0-6.0,17,True,ITLT,v1.0,"[522, 662, 784, 900, 998, 1109, 1213, 1324, 1434, 1544, 1654, 1759, 1869, 1974, 2084, 2200, 2316, 2432, 2537, 2647, 2763, 2885, 2984, 3088, 3199, 3297, 3408, 3524, 3628, 3744, 3855, 3971, 4087, 4203, 4325, 4441, 4563, 4690, 4824, 4952, 5149, 5306, 5492, 5642, 5886, 6037, 6177, 6339, 6490, 6635, 6780, 6925, 7070, 7245, 7401, 7570, 7726, 7883, 8040, 8208, 8382, 8545, 8690, 8882, 9015, 9189, 9346, 9526, 9694, 9851, 10002, 10147, 10315, 10501, 10710, 10896, 11047, 11186, 11355, 11500, 11656, 11813, 11970, 12127, 12272, 12434, 12585, 12910, 13067, 13218, 13380, 13531, 13706, 13880, 14060, 14234, 14396, 14611, 14809, 14948]",,"[74, 74, 74, 74, 74, 74, 74, 74, 74, 74, 74, 74, 74, 74, 74, 74, 74, 74, 74, 74, 74, 74, 74, 74, 74, 74, 74, 74, 74, 74, 74, 74, 74, 74, 74, 74, 74, 74, 74, 74, 74, 74, 74, 74, 74, 74, 74, 74, 74, 74, 74, 74, 74, 74, 74, 74, 74, 74, 74, 74, 74, 74, 74, 74, 74, 74, 74, 74, 74, 74, 74, 74, 74, 74, 74, 74, 74, 74, 74, 74, 74, 74, 74, 74, 74, 74, 74, 74, 74, 74, 74, 74, 74, 74, 74, 74, 74, 74, 74, 74]",tapping_test,,,"[74 74 74 74 74 74 74 74 74 74 74 74 74 74 74 74 74 74 74 74 74 74 74 74
 74 74 74 74 74 74 74 74 74 74 74 74 74 74 74 74 74 74 74 74 74 74 74 74
 74 74 74 74 74 74 74 74 74 74 74 74 74 74 74 74 74 74 74 74 74 74 74 74
 74 74 74 74 74 74 74 74 74 74 74 74 74 74 74 74 74 74 74 74 74 74 74 74
 74 74 74 74]","[  522   662   784   900   998  1109  1213  1324  1434  1544  1654  1759
  1869  1974  2084  2200  2316  2432  2537  2647  2763  2885  2984  3088
  3199  3297  3408  3524  3628  3744  3855  3971  4087  4203  4325  4441
  4563  4690  4824  4952  5149  5306  5492  5642  5886  6037  6177  6339
  6490  6635  6780  6925  7070  7245  7401  7570  7726  7883  8040  8208
  8382  8545  8690  8882  9015  9189  9346  9526  9694  9851 10002 10147
 10315 10501 10710 10896 11047 11186 11355 11500 11656 11813 11970 12127
 12272 12434 12585 12910 13067 13218 13380 13531 13706 13880 14060 14234
 14396 14611 14809 14948]",145.0,6,0,0,7.0,0.9544084044832779,53.99759250174665,50.492551132256835
audio-multiple-response,17,126812,0.0-6.0,4,True,ITLT,v1.0,"[412, 673, 882, 1097, 1295, 1469, 1666, 1852, 2055, 2229, 2444, 2641, 2833, 3042, 3245, 3425, 3617, 3953, 4122, 4296, 4470, 4667, 4841, 5027, 5224, 5410, 5608, 5799, 5968, 6153, 6339, 6502, 6699, 6902, 7082, 7262, 7448, 7645, 7837, 8034, 8220, 8411, 8603, 8806, 9004, 9195, 9404, 9601, 9816, 9996, 10223, 10397, 10617, 10797, 10995, 11204, 11413, 11604, 11802, 12011, 12220, 12405, 12597, 12794, 12974, 13183, 13398, 13578, 13781, 13973, 14176, 14367, 14541, 14872]",,"[74, 74, 74, 74, 74, 74, 74, 74, 74, 74, 74, 74, 74, 74, 74, 74, 74, 74, 74, 74, 74, 74, 74, 74, 74, 74, 74, 74, 74, 74, 74, 74, 74, 74, 74, 74, 74, 74, 74, 74, 74, 74, 74, 74, 74, 74, 74, 74, 74, 74, 74, 74, 74, 74, 74, 74, 74, 74, 74, 74, 74, 74, 74, 74, 74, 74, 74, 74, 74, 74, 74, 74, 74, 74]",tapping_test,,,"[74 74 74 74 74 74 74 74 74 74 74 74 74 74 74 74 74 74 74 74 74 74 74 74
 74 74 74 74 74 74 74 74 74 74 74 74 74 74 74 74 74 74 74 74 74 74 74 74
 74 74 74 74 74 74 74 74 74 74 74 74 74 74 74 74 74 74 74 74 74 74 74 74
 74 74]","[  412   673   882  1097  1295  1469  1666  1852  2055  2229  2444  2641
  2833  3042  3245  3425  3617  3953  4122  4296  4470  4667  4841  5027
  5224  5410  5608  5799  5968  6153  6339  6502  6699  6902  7082  7262
  7448  7645  7837  8034  8220  8411  8603  8806  9004  9195  9404  9601
  9816  9996 10223 10397 10617 10797 10995 11204 11413 11604 11802 12011
 12220 12405 12597 12794 12974 13183 13398 13578 13781 13973 14176 14367
 14541 14872]",197.0,5,0,1,60.0,0.8891179908300029,50.46742050400542,60.04605783319633
audio-multiple-response,17,147952,0.0-6.0,18,False,ITLT,v1.0,[4888],,[74],tapping_test,,,[74],[4888],,4,1,1,22.0,0.6813508916784774,53.95145559811054,20.867457673907
audio-multiple-response,17,152049,0.0-6.0,20,True,ITLT,v1.0,"[621, 1072, 1501, 1981, 2480, 2931, 3392, 3861, 4331, 4792, 5251, 5712, 6160, 6632, 7080, 7501, 7941, 8411, 8872, 9320, 9752, 10221, 10672, 11101, 11552, 11992, 12461, 12880, 13301, 13781, 14221, 14680]",,"[74, 74, 74, 74, 74, 74, 74, 74, 74, 74, 74, 74, 74, 74, 74, 74, 74, 74, 74, 74, 74, 74, 74, 74, 74, 74, 74, 74, 74, 74, 74, 74]",tapping_test,,,"[74 74 74 74 74 74 74 74 74 74 74 74 74 74 74 74 74 74 74 74 74 74 74 74
 74 74 74 74 74 74 74 74]","[  621  1072  1501  1981  2480  2931  3392  3861  4331  4792  5251  5712
  6160  6632  7080  7501  7941  8411  8872  9320  9752 10221 10672 11101
 11552 11992 12461 12880 13301 13781 14221 14680]",451.0,6,0,0,51.0,0.9337266475048116,50.137309478968426,53.21167941816329
audio-multiple-response,17,149527,0.0-6.0,21,True,ITLT,v1.0,"[0, 288, 528, 720, 880, 1099, 1280, 1459, 1648, 1829, 1979, 2128, 2288, 2440, 2608, 2739, 2888, 3040, 3189, 3328, 3488, 3640, 3808, 3960, 4120, 4259, 4429, 4589, 4728, 4880, 5029, 5179, 5328, 5480, 5629, 5779, 5939, 6088, 6240, 6389, 6560, 6709, 6859, 7019, 7168, 7320, 7469, 7608, 7752, 7899, 8040, 8200, 8349, 8499, 8659, 8808, 8968, 9128, 9280, 9448, 9600, 9760, 9920, 10080, 10229, 10400, 10560, 10720, 10899, 11059, 11229, 11389, 11560, 11728, 11888, 12048, 12208, 12379, 12539, 12699, 12869, 13040, 13189, 13320, 13459, 13589, 13739, 13888, 14048, 14200, 14328, 14488, 14648, 14829, 14979]",,"[74, 74, 74, 74, 74, 74, 74, 74, 74, 74, 74, 74, 74, 74, 74, 74, 74, 74, 74, 74, 74, 74, 74, 74, 74, 74, 74, 74, 74, 74, 74, 74, 74, 74, 74, 74, 74, 74, 74, 74, 74, 74, 74, 74, 74, 74, 74, 74, 74, 74, 74, 74, 74, 74, 74, 74, 74, 74, 74, 74, 74, 74, 74, 74, 74, 74, 74, 74, 74, 74, 74, 74, 74, 74, 74, 74, 74, 74, 74, 74, 74, 74, 74, 74, 74, 74, 74, 74, 74, 74, 74, 74, 74, 74, 74]",tapping_test,,,"[74 74 74 74 74 74 74 74 74 74 74 74 74 74 74 74 74 74 74 74 74 74 74 74
 74 74 74 74 74 74 74 74 74 74 74 74 74 74 74 74 74 74 74 74 74 74 74 74
 74 74 74 74 74 74 74 74 74 74 74 74 74 74 74 74 74 74 74 74 74 74 74 74
 74 74 74 74 74 74 74 74 74 74 74 74 74 74 74 74 74 74 74 74 74 74 74]","[    0   288   528   720   880  1099  1280  1459  1648  1829  1979  2128
  2288  2440  2608  2739  2888  3040  3189  3328  3488  3640  3808  3960
  4120  4259  4429  4589  4728  4880  5029  5179  5328  5480  5629  5779
  5939  6088  6240  6389  6560  6709  6859  7019  7168  7320  7469  7608
  7752  7899  8040  8200  8349  8499  8659  8808  8968  9128  9280  9448
  9600  9760  9920 10080 10229 10400 10560 10720 10899 11059 11229 11389
 11560 11728 11888 12048 12208 12379 12539 12699 12869 13040 13189 13320
 13459 13589 13739 13888 14048 14200 14328 14488 14648 14829 14979]",160.0,4,1,1,85.0,0.8730944560187621,51.79604576687038,64.8804793014206
audio-multiple-response,17,158570,0.0-6.0,27,False,ITLT,v1.0,"[549, 1288, 2149, 2859, 3659, 4400, 5149, 5909, 6629, 7448, 8328, 9099, 9880, 10659, 11480, 12240, 13069, 13819, 14680]",,"[74, 74, 74, 74, 74, 74, 74, 74, 74, 74, 74, 74, 74, 74, 74, 74, 74, 74, 74]",tapping_test,,,[74 74 74 74 74 74 74 74 74 74 74 74 74 74 74 74 74 74 74],"[  549  1288  2149  2859  3659  4400  5149  5909  6629  7448  8328  9099
  9880 10659 11480 12240 13069 13819 14680]",775.0,5,0,1,23.0,0.9242922389938778,44.68135813793121,36.29848784960284
audio-multiple-response,17,162806,0.0-6.0,28,True,ITLT,v1.0,"[453, 1952, 2688, 3307, 3963, 4539, 5109, 5712, 6336, 6928, 7531, 8075, 8651, 9216, 9824, 10389, 10976, 11541, 12165, 12789, 13333, 13856, 14421]",,"[74, 74, 74, 74, 74, 74, 74, 74, 74, 74, 74, 74, 74, 74, 74, 74, 74, 74, 74, 74, 74, 74, 74]",tapping_test,,,[74 74 74 74 74 74 74 74 74 74 74 74 74 74 74 74 74 74 74 74 74 74 74],"[  453  1952  2688  3307  3963  4539  5109  5712  6336  6928  7531  8075
  8651  9216  9824 10389 10976 11541 12165 12789 13333 13856 14421]",589.5,6,0,0,50.0,0.726427346183492,55.15922741086182,55.819637760254906
audio-multiple-response,17,2349923,0.0-6.0,29,False,ITLT,v1.0,"[331, 1640, 2920, 4200, 5451, 6651, 8139, 9440, 10931, 12349, 13829]",,"[74, 74, 74, 74, 74, 74, 74, 74, 74, 74, 74]",tapping_test,,,[74 74 74 74 74 74 74 74 74 74 74],[  331  1640  2920  4200  5451  6651  8139  9440 10931 12349 13829],1305.0,0,6,0,25.0,0.9057669510058132,50.808291467203446,56.52929750437225
audio-multiple-response,17,148027,0.0-6.0,30,False,ITLT,v1.0,"[709, 989, 1309, 1579, 1880, 2149, 2459, 2720, 3008, 3299, 3560, 3848, 4160, 4440, 4720, 5019, 5309, 5629, 5909, 6189, 6520, 6800, 7069, 7328, 7579, 7859, 8128, 8389, 8680, 8920, 9240, 9469, 9760, 10029, 10288, 10549, 10848, 11160, 11440, 11760, 12029, 12288, 12568, 12848, 13149, 13389, 13680, 13939, 14229, 14520, 14819]",,"[74, 74, 74, 74, 74, 74, 74, 74, 74, 74, 74, 74, 74, 74, 74, 74, 74, 74, 74, 74, 74, 74, 74, 74, 74, 74, 74, 74, 74, 74, 74, 74, 74, 74, 74, 74, 74, 74, 74, 74, 74, 74, 74, 74, 74, 74, 74, 74, 74, 74, 74]",tapping_test,,,"[74 74 74 74 74 74 74 74 74 74 74 74 74 74 74 74 74 74 74 74 74 74 74 74
 74 74 74 74 74 74 74 74 74 74 74 74 74 74 74 74 74 74 74 74 74 74 74 74
 74 74 74]","[  709   989  1309  1579  1880  2149  2459  2720  3008  3299  3560  3848
  4160  4440  4720  5019  5309  5629  5909  6189  6520  6800  7069  7328
  7579  7859  8128  8389  8680  8920  9240  9469  9760 10029 10288 10549
 10848 11160 11440 11760 12029 12288 12568 12848 13149 13389 13680 13939
 14229 14520 14819]",280.0,5,0,1,13.0,0.8978888338726374,51.54702655272796,45.647756506576556
audio-multiple-response,17,122502,0.0-6.0,31,True,ITLT,v1.0,"[1280, 1824, 2432, 3008, 3648, 4224, 4832, 5408, 5984, 6560, 7136, 7680, 8256, 8864, 9408, 10016, 10592, 11168, 11744, 12352, 12928, 13472, 14048, 14592]",,"[74, 74, 74, 74, 74, 74, 74, 74, 74, 74, 74, 74, 74, 74, 74, 74, 74, 74, 74, 74, 74, 74, 74, 74]",tapping_test,,,[74 74 74 74 74 74 74 74 74 74 74 74 74 74 74 74 74 74 74 74 74 74 74 74],"[ 1280  1824  2432  3008  3648  4224  4832  5408  5984  6560  7136  7680
  8256  8864  9408 10016 10592 11168 11744 12352 12928 13472 14048 14592]",576.0,0,5,1,45.0,0.9220224562067698,51.14596481375626,59.31475036454159
audio-multiple-response,17,242500,0.0-6.0,32,True,ITLT,v1.0,"[520, 1019, 1491, 1899, 2339, 2669, 3011, 3269, 3531, 3779, 4029, 4299, 4549, 4800, 5029, 5291, 5549, 5779, 6029, 6269, 6499, 6739, 7011, 7200, 7419, 7659, 7899, 8139, 8371, 8571, 8819, 9059, 9320, 9549, 9829, 10059, 10331, 10600, 10891, 11179, 11499, 11789, 12099, 12419, 12760, 13069, 13400, 13699, 14040, 14339, 14680, 14989]",,"[74, 74, 74, 74, 74, 74, 74, 74, 74, 74, 74, 74, 74, 74, 74, 74, 74, 74, 74, 74, 74, 74, 74, 74, 74, 74, 74, 74, 74, 74, 74, 74, 74, 74, 74, 74, 74, 74, 74, 74, 74, 74, 74, 74, 74, 74, 74, 74, 74, 74, 74, 74]",tapping_test,,,"[74 74 74 74 74 74 74 74 74 74 74 74 74 74 74 74 74 74 74 74 74 74 74 74
 74 74 74 74 74 74 74 74 74 74 74 74 74 74 74 74 74 74 74 74 74 74 74 74
 74 74 74 74]","[  520  1019  1491  1899  2339  2669  3011  3269  3531  3779  4029  4299
  4549  4800  5029  5291  5549  5779  6029  6269  6499  6739  7011  7200
  7419  7659  7899  8139  8371  8571  8819  9059  9320  9549  9829 10059
 10331 10600 10891 11179 11499 11789 12099 12419 12760 13069 13400 13699
 14040 14339 14680 14989]",262.0,4,0,2,15.0,0.8896426220244741,55.25644414356349,48.87399440706228
audio-multiple-response,17,157956,0.0-6.0,33,False,ITLT,v1.0,"[389, 587, 677, 800, 901, 1029, 1312, 1515, 1696, 1819, 2005, 2155, 2309, 2469, 2629, 2800, 2971, 3115, 3301, 3440, 3595, 3749, 3893, 4021, 4192, 4459, 4640, 4800, 5024, 5205, 5397, 5632, 5776, 5979, 6165, 6331, 6523, 6709, 6928, 7125, 7296, 7472, 7664, 7851, 8064, 8251, 8443, 8640, 8864, 9056, 9243, 9435, 9627, 9808, 9979, 10165, 10299, 10469, 10656, 10880, 11035, 11221, 11397, 11573, 11744, 11899, 12059, 12384, 12565, 12715, 12864, 13029, 13195, 13365, 13541, 13728, 13936, 14128, 14293, 14421, 14576, 14715, 14891]",,"[70, 70, 70, 70, 70, 70, 70, 70, 70, 70, 70, 70, 70, 70, 70, 70, 70, 70, 70, 70, 70, 70, 70, 70, 70, 70, 70, 70, 70, 70, 70, 70, 70, 70, 70, 70, 70, 70, 70, 70, 70, 70, 70, 70, 70, 70, 70, 70, 70, 70, 70, 70, 70, 70, 70, 70, 70, 70, 70, 70, 70, 70, 70, 70, 70, 70, 70, 70, 70, 70, 70, 70, 70, 70, 70, 70, 70, 70, 70, 70, 70, 70, 70]",tapping_test,,,"[70 70 70 70 70 70 70 70 70 70 70 70 70 70 70 70 70 70 70 70 70 70 70 70
 70 70 70 70 70 70 70 70 70 70 70 70 70 70 70 70 70 70 70 70 70 70 70 70
 70 70 70 70 70 70 70 70 70 70 70 70 70 70 70 70 70 70 70 70 70 70 70 70
 70 70 70 70 70 70 70 70 70 70 70]","[  389   587   677   800   901  1029  1312  1515  1696  1819  2005  2155
  2309  2469  2629  2800  2971  3115  3301  3440  3595  3749  3893  4021
  4192  4459  4640  4800  5024  5205  5397  5632  5776  5979  6165  6331
  6523  6709  6928  7125  7296  7472  7664  7851  8064  8251  8443  8640
  8864  9056  9243  9435  9627  9808  9979 10165 10299 10469 10656 10880
 11035 11221 11397 11573 11744 11899 12059 12384 12565 12715 12864 13029
 13195 13365 13541 13728 13936 14128 14293 14421 14576 14715 14891]",176.0,1,3,2,90.0,0.907792036428414,46.55751649761706,65.3849142206084
audio-multiple-response,17,203322,0.0-6.0,34,False,ITLT,v1.0,"[816, 1973, 3253, 4517, 5829, 7120, 8395, 9691, 11061, 12427, 13744]",,"[74, 74, 74, 74, 74, 74, 74, 74, 74, 74, 74]",tapping_test,,,[74 74 74 74 74 74 74 74 74 74 74],[  816  1973  3253  4517  5829  7120  8395  9691 11061 12427 13744],1293.5,6,0,0,30.0,0.8792790950914859,54.09556265892661,41.40428214469905
audio-multiple-response,17,111748,0.0-6.0,35,False,ITLT,v1.0,"[1264, 1771, 2272, 2768, 3267, 3749, 4240, 4741, 5248, 5701, 6219, 6709, 7195, 7701, 8213, 8720, 9189, 9680, 10155, 10640, 11125, 11600, 12080, 12555, 13051, 13531, 14043, 14485, 14971]",,"[74, 74, 74, 74, 74, 74, 74, 74, 74, 74, 74, 74, 74, 74, 74, 74, 74, 74, 74, 74, 74, 74, 74, 74, 74, 74, 74, 74, 74]",tapping_test,,,"[74 74 74 74 74 74 74 74 74 74 74 74 74 74 74 74 74 74 74 74 74 74 74 74
 74 74 74 74 74]","[ 1264  1771  2272  2768  3267  3749  4240  4741  5248  5701  6219  6709
  7195  7701  8213  8720  9189  9680 10155 10640 11125 11600 12080 12555
 13051 13531 14043 14485 14971]",490.5,6,0,0,23.0,0.8624156340302476,47.5786185787117,49.05056135137709
audio-multiple-response,17,112453,0.0-6.0,36,False,ITLT,v1.0,"[1103, 1945, 2844, 3721, 4685, 5695, 6635, 7564, 8522, 9491, 10397, 11343, 12301, 13293, 14222]",,"[74, 74, 74, 74, 74, 74, 74, 74, 74, 74, 74, 74, 74, 74, 74]",tapping_test,,,[74 74 74 74 74 74 74 74 74 74 74 74 74 74 74],"[ 1103  1945  2844  3721  4685  5695  6635  7564  8522  9491 10397 11343
 12301 13293 14222]",943.0,6,0,0,21.0,0.9277107214414544,54.86593455937966,47.60706107330542
audio-multiple-response,17,221885,0.0-6.0,37,False,ITLT,v1.0,"[512, 843, 1163, 1536, 1909, 2251, 2624, 2965, 3339, 3733, 4085, 4405, 4800, 5163, 5589, 5856, 6208, 6592, 6944, 7328, 7648, 8032, 8352, 8693, 9035, 9408, 9760, 10091, 10432, 10795, 11125, 11520, 11893, 12245, 12576, 12949, 13291, 13632, 13973, 14315, 14688]",,"[74, 74, 74, 74, 74, 74, 74, 74, 74, 74, 74, 74, 74, 74, 74, 74, 74, 74, 74, 74, 74, 74, 74, 74, 74, 74, 74, 74, 74, 74, 74, 74, 74, 74, 74, 74, 74, 74, 74, 74, 74]",tapping_test,,,"[74 74 74 74 74 74 74 74 74 74 74 74 74 74 74 74 74 74 74 74 74 74 74 74
 74 74 74 74 74 74 74 74 74 74 74 74 74 74 74 74 74]","[  512   843  1163  1536  1909  2251  2624  2965  3339  3733  4085  4405
  4800  5163  5589  5856  6208  6592  6944  7328  7648  8032  8352  8693
  9035  9408  9760 10091 10432 10795 11125 11520 11893 12245 12576 12949
 13291 13632 13973 14315 14688]",352.0,6,0,0,23.0,0.9237488321507079,52.03085466924273,33.38443129302682
audio-multiple-response,17,401603,0.0-6.0,40,False,ITLT,v1.0,"[619, 949, 1379, 1811, 2171, 2600, 3019, 3429, 3779, 4229, 4640, 4989, 5400, 5819, 6229, 6579, 6971, 7371, 7749, 8131, 8499, 8931, 9309, 9749, 10139, 10531, 10931, 11320, 11669, 12069, 12440, 12819, 13160, 13619, 14339, 14699]",,"[74, 74, 74, 74, 74, 74, 74, 74, 74, 74, 74, 74, 74, 74, 74, 74, 74, 74, 74, 74, 74, 74, 74, 74, 74, 74, 74, 74, 74, 74, 74, 74, 74, 74, 74, 74]",tapping_test,,,"[74 74 74 74 74 74 74 74 74 74 74 74 74 74 74 74 74 74 74 74 74 74 74 74
 74 74 74 74 74 74 74 74 74 74 74 74]","[  619   949  1379  1811  2171  2600  3019  3429  3779  4229  4640  4989
  5400  5819  6229  6579  6971  7371  7749  8131  8499  8931  9309  9749
 10139 10531 10931 11320 11669 12069 12440 12819 13160 13619 14339 14699]",392.0,6,0,0,26.0,0.970944374282651,47.33910740773382,61.92441817690754
audio-multiple-response,17,116714,0.0-6.0,42,True,ITLT,v1.0,"[192, 621, 998, 1411, 1939, 2334, 2705, 3129, 3535, 3936, 4342, 4719, 5091, 5462, 5863, 6246, 6618, 7012, 7425, 7825, 8197, 8603, 9004, 9381, 9781, 10141, 10501, 10884, 11279, 11622, 12022, 12382, 12794, 13195, 13642, 14048, 14512, 14901]",,"[74, 74, 74, 74, 74, 74, 74, 74, 74, 74, 74, 74, 74, 74, 74, 74, 74, 74, 74, 74, 74, 74, 74, 74, 74, 74, 74, 74, 74, 74, 74, 74, 74, 74, 74, 74, 74, 74]",tapping_test,,,"[74 74 74 74 74 74 74 74 74 74 74 74 74 74 74 74 74 74 74 74 74 74 74 74
 74 74 74 74 74 74 74 74 74 74 74 74 74 74]","[  192   621   998  1411  1939  2334  2705  3129  3535  3936  4342  4719
  5091  5462  5863  6246  6618  7012  7425  7825  8197  8603  9004  9381
  9781 10141 10501 10884 11279 11622 12022 12382 12794 13195 13642 14048
 14512 14901]",400.0,6,0,0,51.0,0.9334641505519456,53.635281217926206,62.48209430751235
audio-multiple-response,17,233780,0.0-6.0,43,False,ITLT,v1.0,"[589, 4479, 10519, 11868, 12608, 13038]",,"[74, 74, 74, 74, 74, 74]",tapping_test,,,[74 74 74 74 74 74],[  589  4479 10519 11868 12608 13038],1349.0,3,1,2,45.0,0.9379164941163618,46.346319467839,60.46832495473082
audio-multiple-response,17,2353065,0.0-6.0,41,False,ITLT,v1.0,"[592, 920, 1232, 1560, 1872, 2192, 2491, 2781, 3072, 3400, 3701, 4021, 4320, 4672, 5000, 5331, 5651, 5981, 6312, 6632, 6952, 7291, 7592, 7920, 8240, 8560, 8872, 9181, 9480, 9800, 10120, 10451, 10760, 11061, 11411, 11731, 12051, 12341, 12891, 13152, 13491, 13781, 14072, 14381, 14672, 14981]",,"[74, 74, 74, 74, 74, 74, 74, 74, 74, 74, 74, 74, 74, 74, 74, 74, 74, 74, 74, 74, 74, 74, 74, 74, 74, 74, 74, 74, 74, 74, 74, 74, 74, 74, 74, 74, 74, 74, 74, 74, 74, 74, 74, 74, 74, 74]",tapping_test,,,"[74 74 74 74 74 74 74 74 74 74 74 74 74 74 74 74 74 74 74 74 74 74 74 74
 74 74 74 74 74 74 74 74 74 74 74 74 74 74 74 74 74 74 74 74 74 74]","[  592   920  1232  1560  1872  2192  2491  2781  3072  3400  3701  4021
  4320  4672  5000  5331  5651  5981  6312  6632  6952  7291  7592  7920
  8240  8560  8872  9181  9480  9800 10120 10451 10760 11061 11411 11731
 12051 12341 12891 13152 13491 13781 14072 14381 14672 14981]",320.0,0,6,0,9.0,0.8391133791609572,56.28720497569559,43.55311285175082
audio-multiple-response,17,204458,0.0-6.0,44,True,ITLT,v1.0,"[485, 1403, 2352, 3387, 4363, 5275, 6277, 7259, 8181, 9104, 10048, 10992, 12005, 12928, 13877, 14811]",,"[74, 74, 74, 74, 74, 74, 74, 74, 74, 74, 74, 74, 74, 74, 74, 74]",tapping_test,,,[74 74 74 74 74 74 74 74 74 74 74 74 74 74 74 74],"[  485  1403  2352  3387  4363  5275  6277  7259  8181  9104 10048 10992
 12005 12928 13877 14811]",944.0,6,0,0,26.0,0.9658902690187418,48.67655309607655,53.27040489584178
audio-multiple-response,17,175264,0.0-6.0,45,False,ITLT,v1.0,"[679, 1701, 2694, 3709, 4696, 5619, 6496, 7593, 8597, 9630, 10559, 11564, 12492, 13444, 14420]",,"[74, 74, 74, 74, 74, 74, 74, 74, 74, 74, 74, 74, 74, 74, 74]",tapping_test,,,[74 74 74 74 74 74 74 74 74 74 74 74 74 74 74],"[  679  1701  2694  3709  4696  5619  6496  7593  8597  9630 10559 11564
 12492 13444 14420]",990.0,4,1,1,27.0,0.9145535214413183,41.21477959499569,50.94354534557709
audio-multiple-response,17,116339,0.0-6.0,46,True,ITLT,v1.0,[nan],,[nan],tapping_test,,,[],[],,1,2,3,20.0,0.8714767637176107,51.36616304623365,53.61806246559006
audio-multiple-response,17,136888,0.0-6.0,47,False,ITLT,v1.0,"[451, 851, 1240, 1712, 2181, 2592, 3032, 3531, 3960, 4400, 4832, 5272, 5691, 6101, 6491, 6952, 7381, 7861, 8272, 8712, 9141, 9541, 10021, 10472, 10901, 11331, 11760, 12211, 12632, 13080, 13531, 13952, 14392, 14792]",,"[74, 74, 74, 74, 74, 74, 74, 74, 74, 74, 74, 74, 74, 74, 74, 74, 74, 74, 74, 74, 74, 74, 74, 74, 74, 74, 74, 74, 74, 74, 74, 74, 74, 74]",tapping_test,,,"[74 74 74 74 74 74 74 74 74 74 74 74 74 74 74 74 74 74 74 74 74 74 74 74
 74 74 74 74 74 74 74 74 74 74]","[  451   851  1240  1712  2181  2592  3032  3531  3960  4400  4832  5272
  5691  6101  6491  6952  7381  7861  8272  8712  9141  9541 10021 10472
 10901 11331 11760 12211 12632 13080 13531 13952 14392 14792]",430.0,5,0,1,13.0,0.9350344551329397,48.10535185349613,42.77759908910966
audio-multiple-response,17,133502,0.0-6.0,48,True,ITLT,v1.0,"[520, 891, 1240, 1611, 2032, 2451, 2872, 3312, 3680, 4061, 4461, 4872, 5251, 5611, 6011, 6400, 6771, 7200, 7600, 8051, 8400, 8792, 9192, 9611, 10000, 10400, 10821, 11192, 11621, 12072, 12432, 12811, 13181, 13592, 13960, 14291, 14672]",,"[74, 74, 74, 74, 74, 74, 74, 74, 74, 74, 74, 74, 74, 74, 74, 74, 74, 74, 74, 74, 74, 74, 74, 74, 74, 74, 74, 74, 74, 74, 74, 74, 74, 74, 74, 74, 74]",tapping_test,,,"[74 74 74 74 74 74 74 74 74 74 74 74 74 74 74 74 74 74 74 74 74 74 74 74
 74 74 74 74 74 74 74 74 74 74 74 74 74]","[  520   891  1240  1611  2032  2451  2872  3312  3680  4061  4461  4872
  5251  5611  6011  6400  6771  7200  7600  8051  8400  8792  9192  9611
 10000 10400 10821 11192 11621 12072 12432 12811 13181 13592 13960 14291
 14672]",390.5,6,0,0,18.0,0.9196018768711431,49.1147745712954,33.04933272356077
audio-multiple-response,17,97757,0.0-6.0,49,True,ITLT,v1.0,"[668, 908, 1149, 1318, 1588, 1837, 2058, 2278, 2560, 2778, 3019, 3260, 3498, 3759, 4008, 4249, 4499, 4748, 4989, 5239, 5468, 5718, 5959, 6188, 6438, 6679, 6899, 7137, 7378, 7607, 7848, 8098, 8319, 8559, 8797, 9050, 9288, 9529, 9770, 9999, 10228, 10458, 10707, 10928, 11148, 11378, 11627, 11860, 12098, 12318, 12539, 12780, 13018, 13259, 13488, 13720, 13938, 14179, 14408, 14629, 14849]",,"[74, 74, 74, 74, 74, 74, 74, 74, 74, 74, 74, 74, 74, 74, 74, 74, 74, 74, 74, 74, 74, 74, 74, 74, 74, 74, 74, 74, 74, 74, 74, 74, 74, 74, 74, 74, 74, 74, 74, 74, 74, 74, 74, 74, 74, 74, 74, 74, 74, 74, 74, 74, 74, 74, 74, 74, 74, 74, 74, 74, 74]",tapping_test,,,"[74 74 74 74 74 74 74 74 74 74 74 74 74 74 74 74 74 74 74 74 74 74 74 74
 74 74 74 74 74 74 74 74 74 74 74 74 74 74 74 74 74 74 74 74 74 74 74 74
 74 74 74 74 74 74 74 74 74 74 74 74 74]","[  668   908  1149  1318  1588  1837  2058  2278  2560  2778  3019  3260
  3498  3759  4008  4249  4499  4748  4989  5239  5468  5718  5959  6188
  6438  6679  6899  7137  7378  7607  7848  8098  8319  8559  8797  9050
  9288  9529  9770  9999 10228 10458 10707 10928 11148 11378 11627 11860
 12098 12318 12539 12780 13018 13259 13488 13720 13938 14179 14408 14629
 14849]",239.0,5,1,0,26.0,0.7962379636310338,50.14999797198671,51.63322643733045
audio-multiple-response,17,128231,0.0-6.0,53,False,ITLT,v1.0,"[1317, 2149, 2917, 3691, 4571, 5424, 6192, 7040, 7872, 8709, 9525, 10373, 11248, 12080, 13008, 13936, 14869]",,"[74, 74, 74, 74, 74, 74, 74, 74, 74, 74, 74, 74, 74, 74, 74, 74, 74]",tapping_test,,,[74 74 74 74 74 74 74 74 74 74 74 74 74 74 74 74 74],"[ 1317  2149  2917  3691  4571  5424  6192  7040  7872  8709  9525 10373
 11248 12080 13008 13936 14869]",842.5,5,1,0,23.0,0.9560991902792093,55.590648717941384,53.781911212468
audio-multiple-response,17,295828,0.0-6.0,50,True,ITLT,v1.0,"[5817, 6043, 6246, 6478, 6705, 6925, 7146, 7367, 7576, 7802, 8017, 8237, 8452, 8673, 8887, 9096, 9305, 9520, 9752, 9967, 10194, 10414, 10629, 10844, 11070, 11297, 11500, 11732, 11952, 12167, 12370, 12591, 12817, 13032, 13253, 13479, 13688, 13920, 14129, 14350, 14576, 14803]",,"[74, 74, 74, 74, 74, 74, 74, 74, 74, 74, 74, 74, 74, 74, 74, 74, 74, 74, 74, 74, 74, 74, 74, 74, 74, 74, 74, 74, 74, 74, 74, 74, 74, 74, 74, 74, 74, 74, 74, 74, 74, 74]",tapping_test,,,"[74 74 74 74 74 74 74 74 74 74 74 74 74 74 74 74 74 74 74 74 74 74 74 74
 74 74 74 74 74 74 74 74 74 74 74 74 74 74 74 74 74 74]","[ 5817  6043  6246  6478  6705  6925  7146  7367  7576  7802  8017  8237
  8452  8673  8887  9096  9305  9520  9752  9967 10194 10414 10629 10844
 11070 11297 11500 11732 11952 12167 12370 12591 12817 13032 13253 13479
 13688 13920 14129 14350 14576 14803]",220.0,6,0,0,16.0,0.9098689468700107,49.772282075868745,35.037759453276124
audio-multiple-response,17,120036,0.0-6.0,51,False,ITLT,v1.0,"[848, 1428, 2299, 3080, 3939, 4760, 5509, 6298, 7100, 7967, 8870, 9729, 10548, 11410, 12269, 13087, 13938]",,"[74, 74, 74, 74, 74, 74, 74, 74, 74, 74, 74, 74, 74, 74, 74, 74, 74]",tapping_test,,,[74 74 74 74 74 74 74 74 74 74 74 74 74 74 74 74 74],"[  848  1428  2299  3080  3939  4760  5509  6298  7100  7967  8870  9729
 10548 11410 12269 13087 13938]",836.0,5,1,0,43.0,0.901870804633756,53.55579260835233,45.196073049784644
audio-multiple-response,17,148166,0.0-6.0,52,False,ITLT,v1.0,"[544, 3013, 4528, 6229, 6725, 6965, 7189, 7387, 7605, 7829, 8037, 8251, 8885, 9099, 9312, 9989, 10149, 10325, 10517, 10651, 10832, 10992, 11168, 11339, 11509, 11744, 12133, 12400, 12613, 12768, 12992, 13189, 13413, 13627, 13808, 14016, 14229, 14485, 14715, 14971]",,"[74, 74, 74, 74, 74, 74, 74, 74, 74, 74, 74, 74, 74, 74, 74, 74, 74, 74, 74, 74, 74, 74, 74, 74, 74, 74, 74, 74, 74, 74, 74, 74, 74, 74, 74, 74, 74, 74, 74, 74]",tapping_test,,,"[74 74 74 74 74 74 74 74 74 74 74 74 74 74 74 74 74 74 74 74 74 74 74 74
 74 74 74 74 74 74 74 74 74 74 74 74 74 74 74 74]","[  544  3013  4528  6229  6725  6965  7189  7387  7605  7829  8037  8251
  8885  9099  9312  9989 10149 10325 10517 10651 10832 10992 11168 11339
 11509 11744 12133 12400 12613 12768 12992 13189 13413 13627 13808 14016
 14229 14485 14715 14971]",214.0,6,0,0,48.0,0.8985004417564153,56.86675903958265,56.92071279618982
audio-multiple-response,17,388802,0.0-6.0,55,True,ITLT,v1.0,"[6600, 8980, 10594, 14385]",,"[74, 74, 74, 74]",tapping_test,,,[74 74 74 74],[ 6600  8980 10594 14385],2380.0,5,0,1,70.0,0.8854169708023645,49.36643848677508,62.71385985494644
audio-multiple-response,17,156690,0.0-6.0,56,False,ITLT,v1.0,"[475, 976, 1557, 2144, 2709, 3291, 3851, 4443, 5045, 5616, 6224, 6805, 7429, 8037, 8683, 9285, 9920, 10560, 11173, 11781, 12357, 13008, 13637, 14245, 14853]",,"[74, 74, 74, 74, 74, 74, 74, 74, 74, 74, 74, 74, 74, 74, 74, 74, 74, 74, 74, 74, 74, 74, 74, 74, 74]",tapping_test,,,"[74 74 74 74 74 74 74 74 74 74 74 74 74 74 74 74 74 74 74 74 74 74 74 74
 74]","[  475   976  1557  2144  2709  3291  3851  4443  5045  5616  6224  6805
  7429  8037  8683  9285  9920 10560 11173 11781 12357 13008 13637 14245
 14853]",605.0,6,0,0,34.0,0.9272996904197812,47.73575858018596,50.077454464944104
audio-multiple-response,17,93936,0.0-6.0,57,True,ITLT,v1.0,"[485, 992, 1664, 2235, 4245, 4773, 5349, 5941, 6528, 7104, 7691, 8267, 8848, 9392, 9920, 10475, 11029, 11595, 12181, 12843, 13424, 14021, 14597]",,"[74, 74, 74, 74, 74, 74, 74, 74, 74, 74, 74, 74, 74, 74, 74, 74, 74, 74, 74, 74, 74, 74, 74]",tapping_test,,,[74 74 74 74 74 74 74 74 74 74 74 74 74 74 74 74 74 74 74 74 74 74 74],"[  485   992  1664  2235  4245  4773  5349  5941  6528  7104  7691  8267
  8848  9392  9920 10475 11029 11595 12181 12843 13424 14021 14597]",576.0,5,1,0,6.0,0.8340943819442341,51.89012410887386,36.05775251027898
audio-multiple-response,17,112787,0.0-6.0,58,False,ITLT,v1.0,"[3297, 3466, 3605, 3738, 3889, 4029, 4156, 6780, 6908, 7041, 7175, 7314, 7465, 7610, 7744, 7877, 8017, 8156, 8301, 8440, 8591, 8731, 8876, 9015, 9166, 9317, 9462, 9625, 9816, 10106, 10252, 10391, 13694, 13833, 13978, 14141, 14298, 14431, 14571, 14733, 14901]",,"[74, 74, 74, 74, 74, 74, 74, 74, 74, 74, 74, 74, 74, 74, 74, 74, 74, 74, 74, 74, 74, 74, 74, 74, 74, 74, 74, 74, 74, 74, 74, 74, 74, 74, 74, 74, 74, 74, 74, 74, 74]",tapping_test,,,"[74 74 74 74 74 74 74 74 74 74 74 74 74 74 74 74 74 74 74 74 74 74 74 74
 74 74 74 74 74 74 74 74 74 74 74 74 74 74 74 74 74]","[ 3297  3466  3605  3738  3889  4029  4156  6780  6908  7041  7175  7314
  7465  7610  7744  7877  8017  8156  8301  8440  8591  8731  8876  9015
  9166  9317  9462  9625  9816 10106 10252 10391 13694 13833 13978 14141
 14298 14431 14571 14733 14901]",145.0,4,1,1,58.0,0.7648007873369479,45.31138823851222,35.2103061027066
audio-multiple-response,17,307101,0.0-6.0,59,True,ITLT,v1.0,"[715, 1189, 1589, 1867, 2085, 2293, 2661, 3067, 3275, 3451, 3648, 3984, 4181, 4363, 4565, 4763, 4944, 5131, 5323, 5504, 5696, 5899, 6085, 6272, 6459, 6645, 6832, 7013, 7200, 7397, 7584, 7787, 7973, 8139, 8336, 8523, 8720, 8912, 9088, 9280, 9621, 9824, 9995, 10187, 10373, 10544, 10752, 10960, 11147, 11312, 11483, 11659, 11856, 12027, 12219, 12416, 12608, 12971, 13264, 13467, 13675, 13861, 14048, 14256, 14453, 14629, 14795, 14981]",,"[74, 74, 74, 74, 74, 74, 74, 74, 74, 74, 74, 74, 74, 74, 74, 74, 74, 74, 74, 74, 74, 74, 74, 74, 74, 74, 74, 74, 74, 74, 74, 74, 74, 74, 74, 74, 74, 74, 74, 74, 74, 74, 74, 74, 74, 74, 74, 74, 74, 74, 74, 74, 74, 74, 74, 74, 74, 74, 74, 74, 74, 74, 74, 74, 74, 74, 74, 74]",tapping_test,,,"[74 74 74 74 74 74 74 74 74 74 74 74 74 74 74 74 74 74 74 74 74 74 74 74
 74 74 74 74 74 74 74 74 74 74 74 74 74 74 74 74 74 74 74 74 74 74 74 74
 74 74 74 74 74 74 74 74 74 74 74 74 74 74 74 74 74 74 74 74]","[  715  1189  1589  1867  2085  2293  2661  3067  3275  3451  3648  3984
  4181  4363  4565  4763  4944  5131  5323  5504  5696  5899  6085  6272
  6459  6645  6832  7013  7200  7397  7584  7787  7973  8139  8336  8523
  8720  8912  9088  9280  9621  9824  9995 10187 10373 10544 10752 10960
 11147 11312 11483 11659 11856 12027 12219 12416 12608 12971 13264 13467
 13675 13861 14048 14256 14453 14629 14795 14981]",192.0,5,0,1,23.0,0.8777605800373913,55.131952972636356,36.80423290802857
audio-multiple-response,17,81710,0.0-6.0,61,False,ITLT,v1.0,"[4805, 12107]",,"[74, 74]",tapping_test,,,[74 74],[ 4805 12107],,3,3,0,9.0,0.7952344298954256,50.47536938833673,42.88373379286966
audio-multiple-response,17,149380,0.0-6.0,62,False,ITLT,v1.0,"[2937, 3825, 4650, 5422, 6252, 7047, 7872, 8661, 9462, 10240, 11000, 11732, 12481, 13247, 13978, 14698]",,"[74, 74, 74, 74, 74, 74, 74, 74, 74, 74, 74, 74, 74, 74, 74, 74]",tapping_test,,,[74 74 74 74 74 74 74 74 74 74 74 74 74 74 74 74],"[ 2937  3825  4650  5422  6252  7047  7872  8661  9462 10240 11000 11732
 12481 13247 13978 14698]",778.0,5,1,0,17.0,0.8691313842112337,50.99854233435127,49.08790684319776
audio-multiple-response,17,385637,0.0-6.0,63,False,ITLT,v1.0,"[688, 1003, 1371, 1723, 2101, 2475, 2843, 3216, 3584, 3947, 4325, 4683, 5045, 5387, 5749, 6091, 6475, 6827, 7179, 7541, 7899, 8245, 8592, 8949, 9307, 9685, 10032, 10379, 10757, 11088, 11467, 11824, 12192, 12576, 12907, 13275, 13611, 13995, 14336, 14704]",,"[74, 74, 74, 74, 74, 74, 74, 74, 74, 74, 74, 74, 74, 74, 74, 74, 74, 74, 74, 74, 74, 74, 74, 74, 74, 74, 74, 74, 74, 74, 74, 74, 74, 74, 74, 74, 74, 74, 74, 74]",tapping_test,,,"[74 74 74 74 74 74 74 74 74 74 74 74 74 74 74 74 74 74 74 74 74 74 74 74
 74 74 74 74 74 74 74 74 74 74 74 74 74 74 74 74]","[  688  1003  1371  1723  2101  2475  2843  3216  3584  3947  4325  4683
  5045  5387  5749  6091  6475  6827  7179  7541  7899  8245  8592  8949
  9307  9685 10032 10379 10757 11088 11467 11824 12192 12576 12907 13275
 13611 13995 14336 14704]",362.0,0,5,1,17.0,0.9539924318969467,48.264442581291675,54.15973307981448
audio-multiple-response,17,78791,0.0-6.0,66,False,ITLT,v1.0,"[3472, 6757, 7312]",,"[32, 32, 32]",tapping_test,,,[],[],,6,0,0,45.0,0.9408527462064918,50.70103189592864,60.06183042559498
audio-multiple-response,17,321167,0.0-6.0,67,True,ITLT,v1.0,"[871, 1370, 1776, 2206, 2659, 3019, 3419, 3872, 4278, 4725, 5143, 5544, 5950, 6374, 6850, 7210, 7645, 8150, 8632, 9154, 9648, 10182, 10658, 11140, 11622, 12156, 12620, 13142, 13607, 14086, 14565]",,"[74, 74, 74, 74, 74, 74, 74, 74, 74, 74, 74, 74, 74, 74, 74, 74, 74, 74, 74, 74, 74, 74, 74, 74, 74, 74, 74, 74, 74, 74, 74]",tapping_test,,,"[74 74 74 74 74 74 74 74 74 74 74 74 74 74 74 74 74 74 74 74 74 74 74 74
 74 74 74 74 74 74 74]","[  871  1370  1776  2206  2659  3019  3419  3872  4278  4725  5143  5544
  5950  6374  6850  7210  7645  8150  8632  9154  9648 10182 10658 11140
 11622 12156 12620 13142 13607 14086 14565]",464.5,5,1,0,88.0,0.8989926011238969,56.509983390077814,67.21141310163723
audio-multiple-response,17,142663,0.0-6.0,68,True,ITLT,v1.0,"[539, 1408, 2080, 2688, 3200, 3669, 4080, 4480, 4880, 5219, 5619, 5949, 6320, 6669, 6979, 7288, 7629, 7928, 8219, 8488, 8728, 8979, 9240, 9469, 9720, 9928, 10128, 10368, 10600, 10840, 11080, 11299, 11509, 11749, 11960, 12189, 12419, 12659, 12848, 13120, 13389, 13659, 13939, 14248, 14520, 14768]",,"[74, 74, 74, 74, 74, 74, 74, 74, 74, 74, 74, 74, 74, 74, 74, 74, 74, 74, 74, 74, 74, 74, 74, 74, 74, 74, 74, 74, 74, 74, 74, 74, 74, 74, 74, 74, 74, 74, 74, 74, 74, 74, 74, 74, 74, 74]",tapping_test,,,"[74 74 74 74 74 74 74 74 74 74 74 74 74 74 74 74 74 74 74 74 74 74 74 74
 74 74 74 74 74 74 74 74 74 74 74 74 74 74 74 74 74 74 74 74 74 74]","[  539  1408  2080  2688  3200  3669  4080  4480  4880  5219  5619  5949
  6320  6669  6979  7288  7629  7928  8219  8488  8728  8979  9240  9469
  9720  9928 10128 10368 10600 10840 11080 11299 11509 11749 11960 12189
 12419 12659 12848 13120 13389 13659 13939 14248 14520 14768]",270.0,6,0,0,26.0,0.7918485417152374,44.74730495592749,34.35667176676115
audio-multiple-response,17,118945,0.0-6.0,69,True,ITLT,v1.0,"[792, 1600, 2491, 3341, 4240, 5120, 5941, 6792, 7600, 8501, 9371, 10261, 11160, 12061, 12880, 13771, 14661]",,"[74, 74, 74, 74, 74, 74, 74, 74, 74, 74, 74, 74, 74, 74, 74, 74, 74]",tapping_test,,,[74 74 74 74 74 74 74 74 74 74 74 74 74 74 74 74 74],"[  792  1600  2491  3341  4240  5120  5941  6792  7600  8501  9371 10261
 11160 12061 12880 13771 14661]",885.0,5,0,1,57.0,0.9454564917555759,49.90735601041118,66.57770348457697
audio-multiple-response,17,137444,0.0-6.0,71,True,ITLT,v1.0,"[992, 1685, 2411, 3168, 3803, 4453, 5125, 5781, 6464, 7104, 7733, 8427, 9077, 9797, 10491, 11195, 11856, 12528, 13200, 13845, 14624]",,"[74, 74, 74, 74, 74, 74, 74, 74, 74, 74, 74, 74, 74, 74, 74, 74, 74, 74, 74, 74, 74]",tapping_test,,,[74 74 74 74 74 74 74 74 74 74 74 74 74 74 74 74 74 74 74 74 74],"[  992  1685  2411  3168  3803  4453  5125  5781  6464  7104  7733  8427
  9077  9797 10491 11195 11856 12528 13200 13845 14624]",672.0,5,0,1,31.0,0.9617064827877202,47.80896262787221,56.59574599525857
audio-multiple-response,17,284774,0.0-6.0,70,True,ITLT,v1.0,"[773, 3035, 5099, 6923, 8741, 10661, 12459, 14325]",,"[74, 74, 74, 74, 74, 74, 74, 74]",tapping_test,,,[74 74 74 74 74 74 74 74],[  773  3035  5099  6923  8741 10661 12459 14325],1866.0,6,0,0,8.0,0.9348494643731822,48.922516616004756,44.62572374032126
audio-multiple-response,17,114690,0.0-6.0,72,True,ITLT,v1.0,"[341, 1691, 2651, 3549, 7011, 7789, 8589, 9331, 10040, 10811, 11549, 12229, 12931, 13661, 14309]",,"[74, 74, 74, 74, 74, 74, 74, 74, 74, 74, 74, 74, 74, 74, 74]",tapping_test,,,[74 74 74 74 74 74 74 74 74 74 74 74 74 74 74],"[  341  1691  2651  3549  7011  7789  8589  9331 10040 10811 11549 12229
 12931 13661 14309]",756.5,5,0,1,76.0,0.9362261502539886,46.2144555323053,72.67149085486889
audio-multiple-response,17,250415,0.0-6.0,73,False,ITLT,v1.0,"[517, 795, 1008, 1179, 1355, 1541, 1717, 1909, 2091, 2277, 2437, 2597, 2763, 2933, 3109, 3285, 3461, 3627, 3819, 4011, 4197, 4379, 4576, 4763, 4955, 5147, 5328, 5504, 5680, 5877, 6059, 6251, 6437, 6635, 6832, 7024, 7211, 7403, 7605, 7803, 8027, 8224, 8437, 8661, 8848, 9077, 9307, 9504, 9707, 9893, 10096, 10293, 10480, 10672, 10864, 11067, 11275, 11467, 11659, 11856, 12064, 12277, 12491, 12672, 12848, 13003, 13179, 13413, 13616, 13851, 14085, 14304, 14549, 14789]",,"[74, 74, 74, 74, 74, 74, 74, 74, 74, 74, 74, 74, 74, 74, 74, 74, 74, 74, 74, 74, 74, 74, 74, 74, 74, 74, 74, 74, 74, 74, 74, 74, 74, 74, 74, 74, 74, 74, 74, 74, 74, 74, 74, 74, 74, 74, 74, 74, 74, 74, 74, 74, 74, 74, 74, 74, 74, 74, 74, 74, 74, 74, 74, 74, 74, 74, 74, 74, 74, 74, 74, 74, 74, 74]",tapping_test,,,"[74 74 74 74 74 74 74 74 74 74 74 74 74 74 74 74 74 74 74 74 74 74 74 74
 74 74 74 74 74 74 74 74 74 74 74 74 74 74 74 74 74 74 74 74 74 74 74 74
 74 74 74 74 74 74 74 74 74 74 74 74 74 74 74 74 74 74 74 74 74 74 74 74
 74 74]","[  517   795  1008  1179  1355  1541  1717  1909  2091  2277  2437  2597
  2763  2933  3109  3285  3461  3627  3819  4011  4197  4379  4576  4763
  4955  5147  5328  5504  5680  5877  6059  6251  6437  6635  6832  7024
  7211  7403  7605  7803  8027  8224  8437  8661  8848  9077  9307  9504
  9707  9893 10096 10293 10480 10672 10864 11067 11275 11467 11659 11856
 12064 12277 12491 12672 12848 13003 13179 13413 13616 13851 14085 14304
 14549 14789]",192.0,6,0,0,18.0,0.9432691726822517,44.19591528325152,47.44010739602098
audio-multiple-response,17,119641,0.0-6.0,76,False,ITLT,v1.0,"[1051, 1275, 1451, 1621, 1819, 2181, 2565, 2949, 3136, 3344, 3547, 3755, 3936, 4123, 4469, 4837, 5035, 5237, 5413, 5637, 5845, 6075, 6229, 6443, 6688, 7099, 7344, 7547, 7733, 7995, 8192, 8437, 8624, 8811, 9024, 9451, 9707, 9915, 10144, 10395, 10624, 10880, 11131, 11376, 11643, 12021, 12347, 12608, 12917, 13317, 13616, 13925, 14219, 14581, 14832]",,"[74, 74, 74, 74, 74, 74, 74, 74, 74, 74, 74, 74, 74, 74, 74, 74, 74, 74, 74, 74, 74, 74, 74, 74, 74, 74, 74, 74, 74, 74, 74, 74, 74, 74, 74, 74, 74, 74, 74, 74, 74, 74, 74, 74, 74, 74, 74, 74, 74, 74, 74, 74, 74, 74, 74]",tapping_test,,,"[74 74 74 74 74 74 74 74 74 74 74 74 74 74 74 74 74 74 74 74 74 74 74 74
 74 74 74 74 74 74 74 74 74 74 74 74 74 74 74 74 74 74 74 74 74 74 74 74
 74 74 74 74 74 74 74]","[ 1051  1275  1451  1621  1819  2181  2565  2949  3136  3344  3547  3755
  3936  4123  4469  4837  5035  5237  5413  5637  5845  6075  6229  6443
  6688  7099  7344  7547  7733  7995  8192  8437  8624  8811  9024  9451
  9707  9915 10144 10395 10624 10880 11131 11376 11643 12021 12347 12608
 12917 13317 13616 13925 14219 14581 14832]",237.5,6,0,0,21.0,0.9368339120222666,48.0436825952102,58.90897032293251
audio-multiple-response,17,97198,0.0-6.0,77,False,ITLT,v1.0,"[11, 200, 1909, 2091, 2259, 2451, 2619, 2779, 2949, 3109, 3280, 3451, 3651, 3859, 4029, 4219, 4379, 4560, 4720, 4869, 5051, 5211, 5691]",,"[74, 74, 74, 74, 74, 74, 74, 74, 74, 74, 74, 74, 74, 74, 74, 74, 74, 74, 74, 74, 74, 74, 32]",tapping_test,,,[74 74 74 74 74 74 74 74 74 74 74 74 74 74 74 74 74 74 74 74 74 74],"[  11  200 1909 2091 2259 2451 2619 2779 2949 3109 3280 3451 3651 3859
 4029 4219 4379 4560 4720 4869 5051 5211]",171.0,5,1,0,26.0,0.9529997237919636,50.60034234804267,52.3420670496677
audio-multiple-response,17,121657,0.0-6.0,78,True,ITLT,v1.0,"[389, 1349, 2395, 3392, 4288, 5200, 6101, 7003, 7819, 8693, 9621, 10528, 11493, 12384, 13317, 14256]",,"[74, 74, 74, 74, 74, 74, 74, 74, 74, 74, 74, 74, 74, 74, 74, 74]",tapping_test,,,[74 74 74 74 74 74 74 74 74 74 74 74 74 74 74 74],"[  389  1349  2395  3392  4288  5200  6101  7003  7819  8693  9621 10528
 11493 12384 13317 14256]",912.0,5,1,0,24.0,0.9168747537888225,52.89837265856851,48.11125438057296
audio-multiple-response,17,135293,0.0-6.0,79,False,ITLT,v1.0,"[544, 1045, 1547, 2048, 2549, 3029, 3520, 4032, 4555, 5056, 5536, 6027, 6560, 7029, 7499, 8032, 8533, 9003, 9493, 10016, 10496, 10987, 11488, 11968, 12469, 12971, 13461, 13973, 14453, 14997]",,"[74, 74, 74, 74, 74, 74, 74, 74, 74, 74, 74, 74, 74, 74, 74, 74, 74, 74, 74, 74, 74, 74, 74, 74, 74, 74, 74, 74, 74, 74]",tapping_test,,,"[74 74 74 74 74 74 74 74 74 74 74 74 74 74 74 74 74 74 74 74 74 74 74 74
 74 74 74 74 74 74]","[  544  1045  1547  2048  2549  3029  3520  4032  4555  5056  5536  6027
  6560  7029  7499  8032  8533  9003  9493 10016 10496 10987 11488 11968
 12469 12971 13461 13973 14453 14997]",501.0,6,0,0,20.0,0.8492850606246389,54.45982218394851,51.53895570974888
audio-multiple-response,17,179999,0.0-6.0,80,False,ITLT,v1.0,"[349, 581, 781, 981, 1189, 1360, 1531, 1709, 1869, 2021, 2181, 2341, 2491, 2661, 2829, 3000, 3171, 3371, 3549, 3771, 3971, 4141, 4360, 4571, 4760, 4949, 5160, 5371, 5560, 5760, 5981, 6181, 6349, 6541, 6680, 6861, 7011, 7189, 7371, 7509, 7680, 7851, 7989, 8149, 8301, 8451, 8629, 8789, 8949, 9109, 9269, 9429, 9611, 10160, 10309, 10480, 10629, 10749, 10891, 11221, 11429, 11600, 11771, 11949, 12131, 12320, 12491, 12661, 12821, 12981, 13149, 13309, 13469, 13621, 13781, 13949, 14109, 14261, 14429, 14600, 14760, 14909]",,"[74, 74, 74, 74, 74, 74, 74, 74, 74, 74, 74, 74, 74, 74, 74, 74, 74, 74, 74, 74, 74, 74, 74, 74, 74, 74, 74, 74, 74, 74, 74, 74, 74, 74, 74, 74, 74, 74, 74, 74, 74, 74, 74, 74, 74, 74, 74, 74, 74, 74, 74, 74, 74, 74, 74, 74, 74, 74, 74, 74, 74, 74, 74, 74, 74, 74, 74, 74, 74, 74, 74, 74, 74, 74, 74, 74, 74, 74, 74, 74, 74, 74]",tapping_test,,,"[74 74 74 74 74 74 74 74 74 74 74 74 74 74 74 74 74 74 74 74 74 74 74 74
 74 74 74 74 74 74 74 74 74 74 74 74 74 74 74 74 74 74 74 74 74 74 74 74
 74 74 74 74 74 74 74 74 74 74 74 74 74 74 74 74 74 74 74 74 74 74 74 74
 74 74 74 74 74 74 74 74 74 74]","[  349   581   781   981  1189  1360  1531  1709  1869  2021  2181  2341
  2491  2661  2829  3000  3171  3371  3549  3771  3971  4141  4360  4571
  4760  4949  5160  5371  5560  5760  5981  6181  6349  6541  6680  6861
  7011  7189  7371  7509  7680  7851  7989  8149  8301  8451  8629  8789
  8949  9109  9269  9429  9611 10160 10309 10480 10629 10749 10891 11221
 11429 11600 11771 11949 12131 12320 12491 12661 12821 12981 13149 13309
 13469 13621 13781 13949 14109 14261 14429 14600 14760 14909]",171.0,0,5,1,87.0,0.8296806634031253,51.65464777221791,72.57243804548044
audio-multiple-response,17,150625,0.0-6.0,81,True,ITLT,v1.0,"[859, 1448, 2008, 2629, 3189, 3760, 4320, 4960, 5568, 6109, 6640, 7208, 7768, 8368, 8928, 9520, 10099, 10539, 11139, 11608, 12320, 12808, 13480, 14059, 14779]",,"[74, 74, 74, 74, 74, 74, 74, 74, 74, 74, 74, 74, 74, 74, 74, 74, 74, 74, 74, 74, 74, 74, 74, 74, 74]",tapping_test,,,"[74 74 74 74 74 74 74 74 74 74 74 74 74 74 74 74 74 74 74 74 74 74 74 74
 74]","[  859  1448  2008  2629  3189  3760  4320  4960  5568  6109  6640  7208
  7768  8368  8928  9520 10099 10539 11139 11608 12320 12808 13480 14059
 14779]",575.0,6,0,0,66.0,0.9392055662674955,55.66218705918591,65.70490227641086
audio-multiple-response,17,521007,0.0-6.0,82,True,ITLT,v1.0,"[691, 971, 1221, 1461, 1701, 1952, 2221, 2451, 2661, 2931, 3152, 3392, 3621, 3851, 4080, 4352, 4611, 4861, 5120, 5352, 5621, 5861, 6131, 6371, 6632, 6880, 7141, 7392, 7661, 7931, 8192, 8432, 8672, 8920, 9171, 9421, 9632, 9880, 10141, 10411, 10672, 10931, 11221, 11480, 11771, 12032, 12312, 12552, 12781, 13051, 13320, 13581, 13821, 14080, 14341, 14592, 14840]",,"[74, 74, 74, 74, 74, 74, 74, 74, 74, 74, 74, 74, 74, 74, 74, 74, 74, 74, 74, 74, 74, 74, 74, 74, 74, 74, 74, 74, 74, 74, 74, 74, 74, 74, 74, 74, 74, 74, 74, 74, 74, 74, 74, 74, 74, 74, 74, 74, 74, 74, 74, 74, 74, 74, 74, 74, 74]",tapping_test,,,"[74 74 74 74 74 74 74 74 74 74 74 74 74 74 74 74 74 74 74 74 74 74 74 74
 74 74 74 74 74 74 74 74 74 74 74 74 74 74 74 74 74 74 74 74 74 74 74 74
 74 74 74 74 74 74 74 74 74]","[  691   971  1221  1461  1701  1952  2221  2451  2661  2931  3152  3392
  3621  3851  4080  4352  4611  4861  5120  5352  5621  5861  6131  6371
  6632  6880  7141  7392  7661  7931  8192  8432  8672  8920  9171  9421
  9632  9880 10141 10411 10672 10931 11221 11480 11771 12032 12312 12552
 12781 13051 13320 13581 13821 14080 14341 14592 14840]",251.0,5,0,1,14.0,0.9359618250851981,46.76778224278036,47.660103571097316
audio-multiple-response,17,170379,0.0-6.0,84,False,ITLT,v1.0,"[448, 1024, 1653, 2288, 2907, 3472, 4187, 4827, 5467, 6080, 6720, 7333, 8016, 8688, 9307, 9952, 10496, 11125, 11701, 12293, 12933, 13536, 14133, 14757]",,"[74, 74, 74, 74, 74, 74, 74, 74, 74, 74, 74, 74, 74, 74, 74, 74, 74, 74, 74, 74, 74, 74, 74, 74]",tapping_test,,,[74 74 74 74 74 74 74 74 74 74 74 74 74 74 74 74 74 74 74 74 74 74 74 74],"[  448  1024  1653  2288  2907  3472  4187  4827  5467  6080  6720  7333
  8016  8688  9307  9952 10496 11125 11701 12293 12933 13536 14133 14757]",624.0,6,0,0,29.0,0.8869358221850588,50.767220349474385,44.08627619879873
audio-multiple-response,17,177569,0.0-6.0,85,True,ITLT,v1.0,"[600, 1171, 1720, 2261, 2821, 3381, 3941, 4469, 5000, 5509, 6040, 6560, 7109, 7621, 8171, 8680, 9189, 9731, 10251, 10760, 11280, 11760, 12291, 12811, 13331, 13869, 14381]",,"[74, 74, 74, 74, 74, 74, 74, 74, 74, 74, 74, 74, 74, 74, 74, 74, 74, 74, 74, 74, 74, 74, 74, 74, 74, 74, 74]",tapping_test,,,"[74 74 74 74 74 74 74 74 74 74 74 74 74 74 74 74 74 74 74 74 74 74 74 74
 74 74 74]","[  600  1171  1720  2261  2821  3381  3941  4469  5000  5509  6040  6560
  7109  7621  8171  8680  9189  9731 10251 10760 11280 11760 12291 12811
 13331 13869 14381]",529.5,6,0,0,26.0,0.9548621162344446,49.052806499088526,59.73049864411075
audio-multiple-response,17,175608,0.0-6.0,89,True,ITLT,v1.0,"[3631, 8530, 8911, 10272, 10852, 10963]",,"[32, 107, 107, 187, 16, 187]",tapping_test,,,[],[],,4,2,0,21.0,0.8939456001561206,51.18974355941426,51.34219657487034
audio-multiple-response,17,174996,0.0-6.0,92,True,ITLT,v1.0,"[488, 768, 1040, 1328, 1629, 1928, 2208, 2499, 2749, 3008, 3269, 3528, 3779, 4059, 4309, 4579, 4859, 5139, 5429, 5648, 5909, 6179, 6419, 6659, 7019, 7219, 7480, 7720, 7979, 8219, 8448, 8688, 8949, 9219, 9459, 9709, 9949, 10280, 10509, 10760, 10979, 11208, 11440, 11669, 11899, 12128, 12368, 12589, 12808, 13029, 13248, 13469, 13699, 13909, 14128, 14360, 14568, 14819]",,"[74, 74, 74, 74, 74, 74, 74, 74, 74, 74, 74, 74, 74, 74, 74, 74, 74, 74, 74, 74, 74, 74, 74, 74, 74, 74, 74, 74, 74, 74, 74, 74, 74, 74, 74, 74, 74, 74, 74, 74, 74, 74, 74, 74, 74, 74, 74, 74, 74, 74, 74, 74, 74, 74, 74, 74, 74, 74]",tapping_test,,,"[74 74 74 74 74 74 74 74 74 74 74 74 74 74 74 74 74 74 74 74 74 74 74 74
 74 74 74 74 74 74 74 74 74 74 74 74 74 74 74 74 74 74 74 74 74 74 74 74
 74 74 74 74 74 74 74 74 74 74]","[  488   768  1040  1328  1629  1928  2208  2499  2749  3008  3269  3528
  3779  4059  4309  4579  4859  5139  5429  5648  5909  6179  6419  6659
  7019  7219  7480  7720  7979  8219  8448  8688  8949  9219  9459  9709
  9949 10280 10509 10760 10979 11208 11440 11669 11899 12128 12368 12589
 12808 13029 13248 13469 13699 13909 14128 14360 14568 14819]",250.0,5,0,1,58.0,0.8304705454857975,50.52414294086226,48.120765886728876
audio-multiple-response,17,194558,0.0-6.0,93,False,ITLT,v1.0,"[540, 1126, 1463, 1672, 1887, 2078, 2276, 2479, 2682, 2879, 3094, 3291, 3500, 3715, 3918, 4122, 4319, 4534, 4748, 4946, 5155, 5381, 5584, 5793, 6020, 6264, 6467, 6664, 6873, 7076, 7303, 7506, 7726, 7918, 8115, 8330, 8539, 8760, 8969, 9178, 9404, 9625, 9839, 10043, 10223, 10449, 10652, 10855, 11070, 11291, 11465, 11668, 11865, 12063, 12260, 12481, 12684, 12904, 13119, 13334, 13549, 13758, 13961, 14141, 14344, 14547, 14768, 14965]",,"[74, 74, 74, 74, 74, 74, 74, 74, 74, 74, 74, 74, 74, 74, 74, 74, 74, 74, 74, 74, 74, 74, 74, 74, 74, 74, 74, 74, 74, 74, 74, 74, 74, 74, 74, 74, 74, 74, 74, 74, 74, 74, 74, 74, 74, 74, 74, 74, 74, 74, 74, 74, 74, 74, 74, 74, 74, 74, 74, 74, 74, 74, 74, 74, 74, 74, 74, 74]",tapping_test,,,"[74 74 74 74 74 74 74 74 74 74 74 74 74 74 74 74 74 74 74 74 74 74 74 74
 74 74 74 74 74 74 74 74 74 74 74 74 74 74 74 74 74 74 74 74 74 74 74 74
 74 74 74 74 74 74 74 74 74 74 74 74 74 74 74 74 74 74 74 74]","[  540  1126  1463  1672  1887  2078  2276  2479  2682  2879  3094  3291
  3500  3715  3918  4122  4319  4534  4748  4946  5155  5381  5584  5793
  6020  6264  6467  6664  6873  7076  7303  7506  7726  7918  8115  8330
  8539  8760  8969  9178  9404  9625  9839 10043 10223 10449 10652 10855
 11070 11291 11465 11668 11865 12063 12260 12481 12684 12904 13119 13334
 13549 13758 13961 14141 14344 14547 14768 14965]",209.0,6,0,0,44.0,0.8337269938729595,55.63132944373848,57.82326796644621
audio-multiple-response,17,178777,0.0-6.0,96,False,ITLT,v1.0,"[443, 917, 1563, 2251, 2907, 3595, 4325, 5040, 5712, 6395, 7152, 7835, 8464, 9093, 9701, 10352, 11051, 11803, 12549, 13195, 13931, 14661]",,"[74, 74, 74, 74, 74, 74, 74, 74, 74, 74, 74, 74, 74, 74, 74, 74, 74, 74, 74, 74, 74, 74]",tapping_test,,,[74 74 74 74 74 74 74 74 74 74 74 74 74 74 74 74 74 74 74 74 74 74],"[  443   917  1563  2251  2907  3595  4325  5040  5712  6395  7152  7835
  8464  9093  9701 10352 11051 11803 12549 13195 13931 14661]",683.0,6,0,0,8.0,0.9521276103399237,47.46946020575493,52.198191961546904
audio-multiple-response,17,232746,0.0-6.0,99,False,ITLT,v1.0,"[837, 1520, 2181, 2805, 3483, 4059, 4693, 5280, 5861, 6432, 7024, 7573, 8139, 8693, 9285, 9813, 10357, 10923, 11419, 11963, 12469, 13056, 13573, 14080, 14629]",,"[70, 70, 70, 70, 70, 70, 70, 70, 70, 70, 70, 70, 70, 70, 70, 70, 70, 70, 70, 70, 70, 70, 70, 70, 70]",tapping_test,,,"[70 70 70 70 70 70 70 70 70 70 70 70 70 70 70 70 70 70 70 70 70 70 70 70
 70]","[  837  1520  2181  2805  3483  4059  4693  5280  5861  6432  7024  7573
  8139  8693  9285  9813 10357 10923 11419 11963 12469 13056 13573 14080
 14629]",568.5,5,1,0,24.0,0.9424199502739667,53.21859206796016,53.27254570398256
audio-multiple-response,17,191585,0.0-6.0,100,False,ITLT,v1.0,"[419, 968, 1520, 1989, 2549, 3120, 3629, 4160, 4709, 5229, 5779, 6309, 6829, 7360, 7888, 8429, 8949, 9488, 9989, 10488, 11069, 11589, 12128, 12680, 13240, 13760, 14299, 14800]",,"[70, 70, 70, 70, 70, 70, 70, 70, 70, 70, 70, 70, 70, 70, 70, 70, 70, 70, 70, 70, 70, 70, 70, 70, 70, 70, 70, 70]",tapping_test,,,"[70 70 70 70 70 70 70 70 70 70 70 70 70 70 70 70 70 70 70 70 70 70 70 70
 70 70 70 70]","[  419   968  1520  1989  2549  3120  3629  4160  4709  5229  5779  6309
  6829  7360  7888  8429  8949  9488  9989 10488 11069 11589 12128 12680
 13240 13760 14299 14800]",531.0,6,0,0,32.0,0.9484728509979085,56.69479711427469,62.378371990618405
audio-multiple-response,17,152587,0.0-6.0,102,False,ITLT,v1.0,"[645, 1360, 2240, 2955, 3749, 4416, 5344, 6373, 7307, 8144, 9019, 9893, 10731, 11493, 12256, 13061, 13867, 14656]",,"[74, 74, 74, 74, 74, 74, 74, 74, 74, 74, 74, 74, 74, 74, 74, 74, 74, 74]",tapping_test,,,[74 74 74 74 74 74 74 74 74 74 74 74 74 74 74 74 74 74],"[  645  1360  2240  2955  3749  4416  5344  6373  7307  8144  9019  9893
 10731 11493 12256 13061 13867 14656]",806.0,5,1,0,29.0,0.7693081841975609,54.2667881538498,39.36785419298337
audio-multiple-response,17,138235,0.0-6.0,103,True,ITLT,v1.0,"[580, 1132, 1472, 1820, 2171, 2711, 3230, 3532, 4072, 4580, 5091, 5622, 6162, 6670, 6960, 7221, 7741, 8240, 8742, 9172, 9671, 10170, 10710, 11413, 11862, 12350, 12902, 13450]",,"[74, 74, 74, 74, 74, 74, 74, 74, 74, 74, 74, 74, 74, 74, 74, 74, 74, 74, 74, 74, 74, 74, 74, 74, 74, 74, 74, 74]",tapping_test,,,"[74 74 74 74 74 74 74 74 74 74 74 74 74 74 74 74 74 74 74 74 74 74 74 74
 74 74 74 74]","[  580  1132  1472  1820  2171  2711  3230  3532  4072  4580  5091  5622
  6162  6670  6960  7221  7741  8240  8742  9172  9671 10170 10710 11413
 11862 12350 12902 13450]",508.0,6,0,0,39.0,0.9017085991950027,53.21453845703927,59.38857864030847
audio-multiple-response,17,185851,0.0-6.0,106,True,ITLT,v1.0,"[469, 811, 989, 1240, 1501, 1771, 2000, 2261, 2520, 2760, 2989, 3221, 3440, 3661, 3891, 4131, 4341, 4571, 4789, 5021, 5251, 5464, 5691, 5931, 6181, 6389, 6640, 6861, 7141, 7349, 7621, 7861, 8109, 8341, 8600, 8829, 9069, 9341, 9581, 9829, 10091, 10371, 10589, 10840, 11101, 11331, 11581, 11800, 12051, 12301, 12541, 12789, 13051, 13301, 13549, 13781, 14051, 14301, 14549, 14824]",,"[74, 74, 74, 74, 74, 74, 74, 74, 74, 74, 74, 74, 74, 74, 74, 74, 74, 74, 74, 74, 74, 74, 74, 74, 74, 74, 74, 74, 74, 74, 74, 74, 74, 74, 74, 74, 74, 74, 74, 74, 74, 74, 74, 74, 74, 74, 74, 74, 74, 74, 74, 74, 74, 74, 74, 74, 74, 74, 74, 74]",tapping_test,,,"[74 74 74 74 74 74 74 74 74 74 74 74 74 74 74 74 74 74 74 74 74 74 74 74
 74 74 74 74 74 74 74 74 74 74 74 74 74 74 74 74 74 74 74 74 74 74 74 74
 74 74 74 74 74 74 74 74 74 74 74 74]","[  469   811   989  1240  1501  1771  2000  2261  2520  2760  2989  3221
  3440  3661  3891  4131  4341  4571  4789  5021  5251  5464  5691  5931
  6181  6389  6640  6861  7141  7349  7621  7861  8109  8341  8600  8829
  9069  9341  9581  9829 10091 10371 10589 10840 11101 11331 11581 11800
 12051 12301 12541 12789 13051 13301 13549 13781 14051 14301 14549 14824]",240.0,6,0,0,52.0,0.932599063513093,46.07701782017676,56.461449867901
audio-multiple-response,17,131976,0.0-6.0,107,True,ITLT,v1.0,"[59, 443, 827, 1216, 1627, 1952, 2304, 2699, 3088, 3488, 3867, 4219, 4640, 5115, 5515, 6080, 6507, 6939, 7376, 7819, 8267, 8709, 9131, 9584, 10037, 10459, 10896, 11355, 11776, 12165, 12560, 12987, 13381, 13771, 14149, 14576, 15003]",,"[74, 74, 74, 74, 74, 74, 74, 74, 74, 74, 74, 74, 74, 74, 74, 74, 74, 74, 74, 74, 74, 74, 74, 74, 74, 74, 74, 74, 74, 74, 74, 74, 74, 74, 74, 74, 74]",tapping_test,,,"[74 74 74 74 74 74 74 74 74 74 74 74 74 74 74 74 74 74 74 74 74 74 74 74
 74 74 74 74 74 74 74 74 74 74 74 74 74]","[   59   443   827  1216  1627  1952  2304  2699  3088  3488  3867  4219
  4640  5115  5515  6080  6507  6939  7376  7819  8267  8709  9131  9584
 10037 10459 10896 11355 11776 12165 12560 12987 13381 13771 14149 14576
 15003]",421.0,6,0,0,40.0,0.9196100036250541,56.38479097135891,49.05910169570191
