"trial_type","trial_index","time_elapsed","internal_node_id","subject","range","experiment","code_version","rt","stimulus","key_press","event","button_pressed","pitch","ioi","loudness","response"
"pavlovia","0","19","0.0-0.0","28","1","ITSR","v1.0","","","","","","","","",""
"html-keyboard-response","1","14192","0.0-1.0","28","1","ITSR","v1.0","14172","<p>Welcome to the study! Press any key to begin reading the instructions.</p>","13","welcome","","","","",""
"html-button-response","2","35325","0.0-2.0","28","1","ITSR","v1.0","21131.5","<p>Before we begin, please close all other browser tabs and programs that may produce sound alerts or notifications, or which you may find distracting.</p><p>In this study, we will ask you to listen to sequences of sounds and to make some judgments about them. Because of this, it's important that you complete this study using headphones while seated in a quiet environment. If it's not currently possible for you to satisfy this requirement, please return to complete the experiment at a later time.</p><p>If you are currently using Safari to access the study, please note that the task may not run properly in this browser, and it may prevent you from hearing any sounds. You should copy the URL from this page and paste it into a different web browser to complete the study there, instead. Chrome, Firefox, and Edge are all officially supported. We apologize for any inconvenience!</p><p>If the text instructions appear too large or too small on your screen, you should adjust your browser's zoom level at this time. When you are ready to continue, press the button below.</p>","","requirements","0","","","",""
"html-button-response","3","45414","0.0-3.0","28","1","ITSR","v1.0","10087.600000023842","<p>First, we'll complete an audio test to make sure you can accurately hear the sounds we'll be presenting throughout the study. In this test, you will hear several sets of three tones. For each set, your goal is to determine which of the three tones is the <strong>quietest</strong>.</p><p>After hearing each set of tones, you will be prompted to press the 1, 2, or 3 key to indicate whether the first, second, or third tone was the quietest.</p><p>Press the button below to begin the test.</p>","","headphone_test_instructions","0","","","",""
"audio-keyboard-response","4","51506","0.0-4.0-0.0","28","1","ITSR","v1.0","null","headphone_check/antiphase_HC_OIS.wav","null","headphone_test_tones","","","","",""
"html-keyboard-response","5","53582","0.0-4.0-1.0","28","1","ITSR","v1.0","2073","<p>Press the 1, 2, or 3 key on your keyboard to indicate which tone was the quietest.</p><p>If you were not able to hear three tones, check that your headphones are working and that your volume is turned up, then press 0.</p>","51","headphone_test_response","","","","",""
"audio-keyboard-response","6","59095","0.0-4.0-0.1","28","1","ITSR","v1.0","null","headphone_check/antiphase_HC_IOS.wav","null","headphone_test_tones","","","","",""
"html-keyboard-response","7","59507","0.0-4.0-1.1","28","1","ITSR","v1.0","407.6999999284744","<p>Press the 1, 2, or 3 key on your keyboard to indicate which tone was the quietest.</p><p>If you were not able to hear three tones, check that your headphones are working and that your volume is turned up, then press 0.</p>","51","headphone_test_response","","","","",""
"audio-keyboard-response","8","65015","0.0-4.0-0.2","28","1","ITSR","v1.0","null","headphone_check/antiphase_HC_SOI.wav","null","headphone_test_tones","","","","",""
"html-keyboard-response","9","66881","0.0-4.0-1.2","28","1","ITSR","v1.0","1864","<p>Press the 1, 2, or 3 key on your keyboard to indicate which tone was the quietest.</p><p>If you were not able to hear three tones, check that your headphones are working and that your volume is turned up, then press 0.</p>","49","headphone_test_response","","","","",""
"audio-keyboard-response","10","72394","0.0-4.0-0.3","28","1","ITSR","v1.0","null","headphone_check/antiphase_HC_ISO.wav","null","headphone_test_tones","","","","",""
"html-keyboard-response","11","72806","0.0-4.0-1.3","28","1","ITSR","v1.0","411.5","<p>Press the 1, 2, or 3 key on your keyboard to indicate which tone was the quietest.</p><p>If you were not able to hear three tones, check that your headphones are working and that your volume is turned up, then press 0.</p>","50","headphone_test_response","","","","",""
"audio-keyboard-response","12","78314","0.0-4.0-0.4","28","1","ITSR","v1.0","null","headphone_check/antiphase_HC_OSI.wav","null","headphone_test_tones","","","","",""
"html-keyboard-response","13","78768","0.0-4.0-1.4","28","1","ITSR","v1.0","453.09999990463257","<p>Press the 1, 2, or 3 key on your keyboard to indicate which tone was the quietest.</p><p>If you were not able to hear three tones, check that your headphones are working and that your volume is turned up, then press 0.</p>","50","headphone_test_response","","","","",""
"audio-keyboard-response","14","84294","0.0-4.0-0.5","28","1","ITSR","v1.0","null","headphone_check/antiphase_HC_SIO.wav","null","headphone_test_tones","","","","",""
"html-keyboard-response","15","84682","0.0-4.0-1.5","28","1","ITSR","v1.0","385.3000000715256","<p>Press the 1, 2, or 3 key on your keyboard to indicate which tone was the quietest.</p><p>If you were not able to hear three tones, check that your headphones are working and that your volume is turned up, then press 0.</p>","49","headphone_test_response","","","","",""
"html-button-response","16","117280","0.0-5.0","28","1","ITSR","v1.0","31088.5","<p>Now you are ready to proceed to the main task.</p><p>On each trial, you will hear a series of clicks from a metronome, followed by a repeating tone. Your goal is to determine how much faster or slower this repeating tone is, compared to the metronome.</p><p>After listening to each pair, you will be given a slider with which to respond. The slider will range from ""Half as Fast"" on the left to ""Twice as Fast"" on the right. If the repeating tone was slower than the metronome, you should move the slider to the left by a distance which represents how much slower it was. If the repeating tone was faster than the metronome, you should instead move the slider to the right by a distance which represents how much faster it was. If the repeating tone was played at the same rate as the metronome, you should place the slider in the center of the range, where it is marked ""Equal Rates"".</p><p>Press the button below to try three practice trials, which will help you get comfortable with the task.</p>","","main_instructions","0","","","",""
"audio-keyboard-response","17","121518","0.0-6.0-0.0","28","1","ITSR","v1.0","null","stimuli/reference_sequence.wav","null","practice_metronome","","0","741","1",""
"audio-keyboard-response","18","126497","0.0-6.0-1.0","28","1","ITSR","v1.0","null","stimuli/practice_sequence_1_741.wav","null","practice_tones","","0","741","1",""
"html-slider-response","19","132951","0.0-6.0-2.0","28","1","ITSR","v1.0","6349.100000023842","How fast was the repeating tone relative to the metronome?","","practice_response","","0","741","1","0"
"audio-keyboard-response","20","136718","0.0-6.0-0.1","28","1","ITSR","v1.0","null","stimuli/reference_sequence.wav","null","practice_metronome","","0","550","1",""
"audio-keyboard-response","21","140937","0.0-6.0-1.1","28","1","ITSR","v1.0","null","stimuli/practice_sequence_1_550.wav","null","practice_tones","","0","550","1",""
"html-slider-response","22","147786","0.0-6.0-2.1","28","1","ITSR","v1.0","6732","How fast was the repeating tone relative to the metronome?","","practice_response","","0","550","1","50"
"audio-keyboard-response","23","151558","0.0-6.0-0.2","28","1","ITSR","v1.0","null","stimuli/reference_sequence.wav","null","practice_metronome","","0","407","1",""
"audio-keyboard-response","24","155187","0.0-6.0-1.2","28","1","ITSR","v1.0","null","stimuli/practice_sequence_1_407.wav","null","practice_tones","","0","407","1",""
"html-slider-response","25","157601","0.0-6.0-2.2","28","1","ITSR","v1.0","2307.7999999523163","How fast was the repeating tone relative to the metronome?","","practice_response","","0","407","1","100"
"html-button-response","26","170020","0.0-7.0","28","1","ITSR","v1.0","10908.799999952316","<p>You have completed the practice trials and are now ready to begin!</p><p>Remember, your goal is to determine how much faster or slower the repeating tone is compared to the metronome.</p><p>Please note that the trials will be organized into 6 sections, and you will have the opportunity to rest after each. If the practice trials were too loud or too quiet, adjust your volume now.</p><p><strong>It is critical that you do not adjust your volume any further until the study has concluded.</strong></p><p>Press the button below when you are ready to proceed.</p>","","summary_instructions","0","","","",""
"audio-multiple-response","27","174278","0.0-8.0","28","1","ITSR","v1.0","","stimuli/reference_sequence.wav","","metronome","","0","550","1",""
"audio-multiple-response","28","178478","0.0-9.0","28","1","ITSR","v1.0","","stimuli/sequence_1_0_550_1.wav","","tones","","0","550","1",""
"html-slider-response","29","184387","0.0-10.0","28","1","ITSR","v1.0","5907.300000071526","How fast was the repeating tone relative to the metronome?","","response","","0","550","1","50"
"audio-multiple-response","30","188138","0.0-11.0","28","1","ITSR","v1.0","","stimuli/reference_sequence.wav","","metronome","","1","425","0",""
"audio-multiple-response","31","191848","0.0-12.0","28","1","ITSR","v1.0","","stimuli/sequence_1_1_425_0.wav","","tones","","1","425","0",""
"html-slider-response","32","204260","0.0-13.0","28","1","ITSR","v1.0","12410.799999952316","How fast was the repeating tone relative to the metronome?","","response","","1","425","0","100"
"audio-multiple-response","33","208018","0.0-14.0","28","1","ITSR","v1.0","","stimuli/reference_sequence.wav","","metronome","","3","599","0",""
"audio-multiple-response","34","212418","0.0-15.0","28","1","ITSR","v1.0","","stimuli/sequence_1_3_599_0.wav","","tones","","3","599","0",""
"html-slider-response","35","215499","0.0-16.0","28","1","ITSR","v1.0","3079.399999976158","How fast was the repeating tone relative to the metronome?","","response","","3","599","0","0"
"audio-multiple-response","36","219248","0.0-17.0","28","1","ITSR","v1.0","","stimuli/reference_sequence.wav","","metronome","","5","843","0",""
"audio-multiple-response","37","224638","0.0-18.0","28","1","ITSR","v1.0","","stimuli/sequence_1_5_843_0.wav","","tones","","5","843","0",""
"html-slider-response","38","227325","0.0-19.0","28","1","ITSR","v1.0","2685","How fast was the repeating tone relative to the metronome?","","response","","5","843","0","0"
"audio-multiple-response","39","231078","0.0-20.0","28","1","ITSR","v1.0","","stimuli/reference_sequence.wav","","metronome","","4","504","2",""
"audio-multiple-response","40","235098","0.0-21.0","28","1","ITSR","v1.0","","stimuli/sequence_1_4_504_2.wav","","tones","","4","504","2",""
"html-slider-response","41","239038","0.0-22.0","28","1","ITSR","v1.0","3938.7000000476837","How fast was the repeating tone relative to the metronome?","","response","","4","504","2","51"
"audio-multiple-response","42","242797","0.0-23.0","28","1","ITSR","v1.0","","stimuli/reference_sequence.wav","","metronome","","3","918","1",""
"audio-multiple-response","43","248487","0.0-24.0","28","1","ITSR","v1.0","","stimuli/sequence_1_3_918_1.wav","","tones","","3","918","1",""
"html-slider-response","44","250079","0.0-25.0","28","1","ITSR","v1.0","1589.7000000476837","How fast was the repeating tone relative to the metronome?","","response","","3","918","1","0"
"audio-multiple-response","45","253838","0.0-26.0","28","1","ITSR","v1.0","","stimuli/reference_sequence.wav","","metronome","","2","425","1",""
"audio-multiple-response","46","257557","0.0-27.0","28","1","ITSR","v1.0","","stimuli/sequence_1_2_425_1.wav","","tones","","2","425","1",""
"html-slider-response","47","262179","0.0-28.0","28","1","ITSR","v1.0","4620.199999928474","How fast was the repeating tone relative to the metronome?","","response","","2","425","1","100"
"audio-multiple-response","48","265927","0.0-29.0","28","1","ITSR","v1.0","","stimuli/reference_sequence.wav","","metronome","","3","329","2",""
"audio-multiple-response","49","269257","0.0-30.0","28","1","ITSR","v1.0","","stimuli/sequence_1_3_329_2.wav","","tones","","3","329","2",""
"html-slider-response","50","270756","0.0-31.0","28","1","ITSR","v1.0","1498.5999999046326","How fast was the repeating tone relative to the metronome?","","response","","3","329","2","100"
"audio-multiple-response","51","274518","0.0-32.0","28","1","ITSR","v1.0","","stimuli/reference_sequence.wav","","metronome","","4","918","1",""
"audio-multiple-response","52","280198","0.0-33.0","28","1","ITSR","v1.0","","stimuli/sequence_1_4_918_1.wav","","tones","","4","918","1",""
"html-slider-response","53","282124","0.0-34.0","28","1","ITSR","v1.0","1924.2999999523163","How fast was the repeating tone relative to the metronome?","","response","","4","918","1","0"
"audio-multiple-response","54","285877","0.0-35.0","28","1","ITSR","v1.0","","stimuli/reference_sequence.wav","","metronome","","0","358","1",""
"audio-multiple-response","55","289317","0.0-36.0","28","1","ITSR","v1.0","","stimuli/sequence_1_0_358_1.wav","","tones","","0","358","1",""
"html-slider-response","56","291561","0.0-37.0","28","1","ITSR","v1.0","2241.5999999046326","How fast was the repeating tone relative to the metronome?","","response","","0","358","1","100"
"audio-multiple-response","57","295317","0.0-38.0","28","1","ITSR","v1.0","","stimuli/reference_sequence.wav","","metronome","","1","774","2",""
"audio-multiple-response","58","300417","0.0-39.0","28","1","ITSR","v1.0","","stimuli/sequence_1_1_774_2.wav","","tones","","1","774","2",""
"html-slider-response","59","302833","0.0-40.0","28","1","ITSR","v1.0","2413.600000023842","How fast was the repeating tone relative to the metronome?","","response","","1","774","2","0"
"audio-multiple-response","60","306597","0.0-41.0","28","1","ITSR","v1.0","","stimuli/reference_sequence.wav","","metronome","","0","463","1",""
"audio-multiple-response","61","310467","0.0-42.0","28","1","ITSR","v1.0","","stimuli/sequence_1_0_463_1.wav","","tones","","0","463","1",""
"html-slider-response","62","314964","0.0-43.0","28","1","ITSR","v1.0","4495","How fast was the repeating tone relative to the metronome?","","response","","0","463","1","62"
"audio-multiple-response","63","318717","0.0-44.0","28","1","ITSR","v1.0","","stimuli/reference_sequence.wav","","metronome","","5","329","1",""
"audio-multiple-response","64","322037","0.0-45.0","28","1","ITSR","v1.0","","stimuli/sequence_1_5_329_1.wav","","tones","","5","329","1",""
"html-slider-response","65","323886","0.0-46.0","28","1","ITSR","v1.0","1846.5","How fast was the repeating tone relative to the metronome?","","response","","5","329","1","100"
"audio-multiple-response","66","327637","0.0-47.0","28","1","ITSR","v1.0","","stimuli/reference_sequence.wav","","metronome","","3","425","0",""
"audio-multiple-response","67","331337","0.0-48.0","28","1","ITSR","v1.0","","stimuli/sequence_1_3_425_0.wav","","tones","","3","425","0",""
"html-slider-response","68","333802","0.0-49.0","28","1","ITSR","v1.0","2462.7000000476837","How fast was the repeating tone relative to the metronome?","","response","","3","425","0","84"
"audio-multiple-response","69","337557","0.0-50.0","28","1","ITSR","v1.0","","stimuli/reference_sequence.wav","","metronome","","4","329","0",""
"audio-multiple-response","70","340877","0.0-51.0","28","1","ITSR","v1.0","","stimuli/sequence_1_4_329_0.wav","","tones","","4","329","0",""
"html-slider-response","71","343577","0.0-52.0","28","1","ITSR","v1.0","2697.100000023842","How fast was the repeating tone relative to the metronome?","","response","","4","329","0","100"
"audio-multiple-response","72","347327","0.0-53.0","28","1","ITSR","v1.0","","stimuli/reference_sequence.wav","","metronome","","2","504","0",""
"audio-multiple-response","73","351347","0.0-54.0","28","1","ITSR","v1.0","","stimuli/sequence_1_2_504_0.wav","","tones","","2","504","0",""
"html-slider-response","74","355098","0.0-55.0","28","1","ITSR","v1.0","3748.399999976158","How fast was the repeating tone relative to the metronome?","","response","","2","504","0","55"
"audio-multiple-response","75","358847","0.0-56.0","28","1","ITSR","v1.0","","stimuli/reference_sequence.wav","","metronome","","5","463","0",""
"audio-multiple-response","76","362707","0.0-57.0","28","1","ITSR","v1.0","","stimuli/sequence_1_5_463_0.wav","","tones","","5","463","0",""
"html-slider-response","77","365666","0.0-58.0","28","1","ITSR","v1.0","2956.600000023842","How fast was the repeating tone relative to the metronome?","","response","","5","463","0","50"
"audio-multiple-response","78","369417","0.0-59.0","28","1","ITSR","v1.0","","stimuli/reference_sequence.wav","","metronome","","2","918","2",""
"audio-multiple-response","79","375097","0.0-60.0","28","1","ITSR","v1.0","","stimuli/sequence_1_2_918_2.wav","","tones","","2","918","2",""
"html-slider-response","80","378735","0.0-61.0","28","1","ITSR","v1.0","3636.8000000715256","How fast was the repeating tone relative to the metronome?","","response","","2","918","2","0"
"audio-multiple-response","81","382487","0.0-62.0","28","1","ITSR","v1.0","","stimuli/reference_sequence.wav","","metronome","","1","329","0",""
"audio-multiple-response","82","385807","0.0-63.0","28","1","ITSR","v1.0","","stimuli/sequence_1_1_329_0.wav","","tones","","1","329","0",""
"html-slider-response","83","387448","0.0-64.0","28","1","ITSR","v1.0","1639.2000000476837","How fast was the repeating tone relative to the metronome?","","response","","1","329","0","100"
"audio-multiple-response","84","391207","0.0-65.0","28","1","ITSR","v1.0","","stimuli/reference_sequence.wav","","metronome","","4","774","2",""
"audio-multiple-response","85","396317","0.0-66.0","28","1","ITSR","v1.0","","stimuli/sequence_1_4_774_2.wav","","tones","","4","774","2",""
"html-slider-response","86","398330","0.0-67.0","28","1","ITSR","v1.0","2011.2999999523163","How fast was the repeating tone relative to the metronome?","","response","","4","774","2","0"
"audio-multiple-response","87","402077","0.0-68.0","28","1","ITSR","v1.0","","stimuli/reference_sequence.wav","","metronome","","1","599","2",""
"audio-multiple-response","88","406477","0.0-69.0","28","1","ITSR","v1.0","","stimuli/sequence_1_1_599_2.wav","","tones","","1","599","2",""
"html-slider-response","89","410248","0.0-70.0","28","1","ITSR","v1.0","3769.399999976158","How fast was the repeating tone relative to the metronome?","","response","","1","599","2","47"
"audio-multiple-response","90","413997","0.0-71.0","28","1","ITSR","v1.0","","stimuli/reference_sequence.wav","","metronome","","2","329","0",""
"audio-multiple-response","91","417317","0.0-72.0","28","1","ITSR","v1.0","","stimuli/sequence_1_2_329_0.wav","","tones","","2","329","0",""
"html-slider-response","92","418902","0.0-73.0","28","1","ITSR","v1.0","1583.4000000953674","How fast was the repeating tone relative to the metronome?","","response","","2","329","0","100"
"audio-multiple-response","93","422646","0.0-74.0","28","1","ITSR","v1.0","","stimuli/reference_sequence.wav","","metronome","","3","652","0",""
"audio-multiple-response","94","427257","0.0-75.0","28","1","ITSR","v1.0","","stimuli/sequence_1_3_652_0.wav","","tones","","3","652","0",""
"html-slider-response","95","428686","0.0-76.0","28","1","ITSR","v1.0","1427.7999999523163","How fast was the repeating tone relative to the metronome?","","response","","3","652","0","0"
"audio-multiple-response","96","432436","0.0-77.0","28","1","ITSR","v1.0","","stimuli/reference_sequence.wav","","metronome","","5","550","1",""
"audio-multiple-response","97","436647","0.0-78.0","28","1","ITSR","v1.0","","stimuli/sequence_1_5_550_1.wav","","tones","","5","550","1",""
"html-slider-response","98","441592","0.0-79.0","28","1","ITSR","v1.0","4943.200000047684","How fast was the repeating tone relative to the metronome?","","response","","5","550","1","50"
"audio-multiple-response","99","445357","0.0-80.0","28","1","ITSR","v1.0","","stimuli/reference_sequence.wav","","metronome","","2","710","0",""
"audio-multiple-response","100","450197","0.0-81.0","28","1","ITSR","v1.0","","stimuli/sequence_1_2_710_0.wav","","tones","","2","710","0",""
"html-slider-response","101","454094","0.0-82.0","28","1","ITSR","v1.0","3894.8000000715256","How fast was the repeating tone relative to the metronome?","","response","","2","710","0","0"
"audio-multiple-response","102","457837","0.0-83.0","28","1","ITSR","v1.0","","stimuli/reference_sequence.wav","","metronome","","0","843","1",""
"audio-multiple-response","103","463217","0.0-84.0","28","1","ITSR","v1.0","","stimuli/sequence_1_0_843_1.wav","","tones","","0","843","1",""
"html-slider-response","104","466728","0.0-85.0","28","1","ITSR","v1.0","3509.2999999523163","How fast was the repeating tone relative to the metronome?","","response","","0","843","1","0"
"audio-multiple-response","105","470476","0.0-86.0","28","1","ITSR","v1.0","","stimuli/reference_sequence.wav","","metronome","","5","652","0",""
"audio-multiple-response","106","475097","0.0-87.0","28","1","ITSR","v1.0","","stimuli/sequence_1_5_652_0.wav","","tones","","5","652","0",""
"html-slider-response","107","479665","0.0-88.0","28","1","ITSR","v1.0","4565.899999976158","How fast was the repeating tone relative to the metronome?","","response","","5","652","0","51"
"audio-multiple-response","108","483417","0.0-89.0","28","1","ITSR","v1.0","","stimuli/reference_sequence.wav","","metronome","","4","390","0",""
"audio-multiple-response","109","486987","0.0-90.0","28","1","ITSR","v1.0","","stimuli/sequence_1_4_390_0.wav","","tones","","4","390","0",""
"html-slider-response","110","489232","0.0-91.0","28","1","ITSR","v1.0","2242.5999999046326","How fast was the repeating tone relative to the metronome?","","response","","4","390","0","100"
"audio-multiple-response","111","492997","0.0-92.0","28","1","ITSR","v1.0","","stimuli/reference_sequence.wav","","metronome","","1","918","1",""
"audio-multiple-response","112","498678","0.0-93.0","28","1","ITSR","v1.0","","stimuli/sequence_1_1_918_1.wav","","tones","","1","918","1",""
"html-slider-response","113","506979","0.0-94.0","28","1","ITSR","v1.0","8299.5","How fast was the repeating tone relative to the metronome?","","response","","1","918","1","0"
"audio-multiple-response","114","510727","0.0-95.0","28","1","ITSR","v1.0","","stimuli/reference_sequence.wav","","metronome","","0","652","0",""
"audio-multiple-response","115","515337","0.0-96.0","28","1","ITSR","v1.0","","stimuli/sequence_1_0_652_0.wav","","tones","","0","652","0",""
"html-slider-response","116","519726","0.0-97.0","28","1","ITSR","v1.0","4388.5","How fast was the repeating tone relative to the metronome?","","response","","0","652","0","51"
"html-button-response","117","528245","0.0-98.0","28","1","ITSR","v1.0","7015","<h3>You have completed section 1 of 6!</h3><p>When you are ready to continue, press the button below to begin the next section.</p><p><em>Please remember not to adjust your volume until the study has concluded.</em></p>","","break","0","","","",""
"audio-multiple-response","118","532517","0.0-99.0","28","1","ITSR","v1.0","","stimuli/reference_sequence.wav","","metronome","","4","463","1",""
"audio-multiple-response","119","536377","0.0-100.0","28","1","ITSR","v1.0","","stimuli/sequence_1_4_463_1.wav","","tones","","4","463","1",""
"html-slider-response","120","541226","0.0-101.0","28","1","ITSR","v1.0","4847.100000023842","How fast was the repeating tone relative to the metronome?","","response","","4","463","1","74"
"audio-multiple-response","121","544997","0.0-102.0","28","1","ITSR","v1.0","","stimuli/reference_sequence.wav","","metronome","","3","710","2",""
"audio-multiple-response","122","549837","0.0-103.0","28","1","ITSR","v1.0","","stimuli/sequence_1_3_710_2.wav","","tones","","3","710","2",""
"html-slider-response","123","556491","0.0-104.0","28","1","ITSR","v1.0","6651.899999976158","How fast was the repeating tone relative to the metronome?","","response","","3","710","2","0"
"audio-multiple-response","124","560237","0.0-105.0","28","1","ITSR","v1.0","","stimuli/reference_sequence.wav","","metronome","","4","1000","0",""
"audio-multiple-response","125","566237","0.0-106.0","28","1","ITSR","v1.0","","stimuli/sequence_1_4_1000_0.wav","","tones","","4","1000","0",""
"html-slider-response","126","572656","0.0-107.0","28","1","ITSR","v1.0","6416.200000047684","How fast was the repeating tone relative to the metronome?","","response","","4","1000","0","0"
"audio-multiple-response","127","576417","0.0-108.0","28","1","ITSR","v1.0","","stimuli/reference_sequence.wav","","metronome","","5","302","2",""
"audio-multiple-response","128","579627","0.0-109.0","28","1","ITSR","v1.0","","stimuli/sequence_1_5_302_2.wav","","tones","","5","302","2",""
"html-slider-response","129","583854","0.0-110.0","28","1","ITSR","v1.0","4224.700000047684","How fast was the repeating tone relative to the metronome?","","response","","5","302","2","100"
"audio-multiple-response","130","587617","0.0-111.0","28","1","ITSR","v1.0","","stimuli/reference_sequence.wav","","metronome","","4","599","1",""
"audio-multiple-response","131","592017","0.0-112.0","28","1","ITSR","v1.0","","stimuli/sequence_1_4_599_1.wav","","tones","","4","599","1",""
"html-slider-response","132","599499","0.0-113.0","28","1","ITSR","v1.0","7479.700000047684","How fast was the repeating tone relative to the metronome?","","response","","4","599","1","50"
"audio-multiple-response","133","603257","0.0-114.0","28","1","ITSR","v1.0","","stimuli/reference_sequence.wav","","metronome","","1","463","2",""
"audio-multiple-response","134","607117","0.0-115.0","28","1","ITSR","v1.0","","stimuli/sequence_1_1_463_2.wav","","tones","","1","463","2",""
"html-slider-response","135","613074","0.0-116.0","28","1","ITSR","v1.0","5954.899999976158","How fast was the repeating tone relative to the metronome?","","response","","1","463","2","100"
"audio-multiple-response","136","616837","0.0-117.0","28","1","ITSR","v1.0","","stimuli/reference_sequence.wav","","metronome","","4","358","2",""
"audio-multiple-response","137","620277","0.0-118.0","28","1","ITSR","v1.0","","stimuli/sequence_1_4_358_2.wav","","tones","","4","358","2",""
"html-slider-response","138","623207","0.0-119.0","28","1","ITSR","v1.0","2927.1999999284744","How fast was the repeating tone relative to the metronome?","","response","","4","358","2","100"
"audio-multiple-response","139","626967","0.0-120.0","28","1","ITSR","v1.0","","stimuli/reference_sequence.wav","","metronome","","2","463","0",""
"audio-multiple-response","140","630827","0.0-121.0","28","1","ITSR","v1.0","","stimuli/sequence_1_2_463_0.wav","","tones","","2","463","0",""
"html-slider-response","141","634828","0.0-122.0","28","1","ITSR","v1.0","3998.600000023842","How fast was the repeating tone relative to the metronome?","","response","","2","463","0","51"
"audio-multiple-response","142","638577","0.0-123.0","28","1","ITSR","v1.0","","stimuli/reference_sequence.wav","","metronome","","5","918","1",""
"audio-multiple-response","143","644257","0.0-124.0","28","1","ITSR","v1.0","","stimuli/sequence_1_5_918_1.wav","","tones","","5","918","1",""
"html-slider-response","144","645972","0.0-125.0","28","1","ITSR","v1.0","1713.0999999046326","How fast was the repeating tone relative to the metronome?","","response","","5","918","1","0"
"audio-multiple-response","145","649738","0.0-126.0","28","1","ITSR","v1.0","","stimuli/reference_sequence.wav","","metronome","","1","652","0",""
"audio-multiple-response","146","654357","0.0-127.0","28","1","ITSR","v1.0","","stimuli/sequence_1_1_652_0.wav","","tones","","1","652","0",""
"html-slider-response","147","661009","0.0-128.0","28","1","ITSR","v1.0","6649.299999952316","How fast was the repeating tone relative to the metronome?","","response","","1","652","0","0"
"audio-multiple-response","148","664767","0.0-129.0","28","1","ITSR","v1.0","","stimuli/reference_sequence.wav","","metronome","","3","843","2",""
"audio-multiple-response","149","670157","0.0-130.0","28","1","ITSR","v1.0","","stimuli/sequence_1_3_843_2.wav","","tones","","3","843","2",""
"html-slider-response","150","677542","0.0-131.0","28","1","ITSR","v1.0","7382.699999928474","How fast was the repeating tone relative to the metronome?","","response","","3","843","2","0"
"audio-multiple-response","151","681297","0.0-132.0","28","1","ITSR","v1.0","","stimuli/reference_sequence.wav","","metronome","","1","550","0",""
"audio-multiple-response","152","685497","0.0-133.0","28","1","ITSR","v1.0","","stimuli/sequence_1_1_550_0.wav","","tones","","1","550","0",""
"html-slider-response","153","692633","0.0-134.0","28","1","ITSR","v1.0","7134.100000023842","How fast was the repeating tone relative to the metronome?","","response","","1","550","0","51"
"audio-multiple-response","154","696377","0.0-135.0","28","1","ITSR","v1.0","","stimuli/reference_sequence.wav","","metronome","","3","390","2",""
"audio-multiple-response","155","699947","0.0-136.0","28","1","ITSR","v1.0","","stimuli/sequence_1_3_390_2.wav","","tones","","3","390","2",""
"html-slider-response","156","724086","0.0-137.0","28","1","ITSR","v1.0","24136.299999952316","How fast was the repeating tone relative to the metronome?","","response","","3","390","2","100"
"audio-multiple-response","157","727847","0.0-138.0","28","1","ITSR","v1.0","","stimuli/reference_sequence.wav","","metronome","","1","1000","2",""
"audio-multiple-response","158","733857","0.0-139.0","28","1","ITSR","v1.0","","stimuli/sequence_1_1_1000_2.wav","","tones","","1","1000","2",""
"html-slider-response","159","746694","0.0-140.0","28","1","ITSR","v1.0","12834.600000023842","How fast was the repeating tone relative to the metronome?","","response","","1","1000","2","0"
"audio-multiple-response","160","750457","0.0-141.0","28","1","ITSR","v1.0","","stimuli/reference_sequence.wav","","metronome","","0","599","0",""
"audio-multiple-response","161","754867","0.0-142.0","28","1","ITSR","v1.0","","stimuli/sequence_1_0_599_0.wav","","tones","","0","599","0",""
"html-slider-response","162","758115","0.0-143.0","28","1","ITSR","v1.0","3245.6999999284744","How fast was the repeating tone relative to the metronome?","","response","","0","599","0","51"
"audio-multiple-response","163","761877","0.0-144.0","28","1","ITSR","v1.0","","stimuli/reference_sequence.wav","","metronome","","5","774","2",""
"audio-multiple-response","164","766987","0.0-145.0","28","1","ITSR","v1.0","","stimuli/sequence_1_5_774_2.wav","","tones","","5","774","2",""
"html-slider-response","165","769730","0.0-146.0","28","1","ITSR","v1.0","2741.4000000953674","How fast was the repeating tone relative to the metronome?","","response","","5","774","2","0"
"audio-multiple-response","166","773487","0.0-147.0","28","1","ITSR","v1.0","","stimuli/reference_sequence.wav","","metronome","","0","1000","0",""
"audio-multiple-response","167","779496","0.0-148.0","28","1","ITSR","v1.0","","stimuli/sequence_1_0_1000_0.wav","","tones","","0","1000","0",""
"html-slider-response","168","781915","0.0-149.0","28","1","ITSR","v1.0","2416.5999999046326","How fast was the repeating tone relative to the metronome?","","response","","0","1000","0","0"
"audio-multiple-response","169","785677","0.0-150.0","28","1","ITSR","v1.0","","stimuli/reference_sequence.wav","","metronome","","3","302","0",""
"audio-multiple-response","170","788897","0.0-151.0","28","1","ITSR","v1.0","","stimuli/sequence_1_3_302_0.wav","","tones","","3","302","0",""
"html-slider-response","171","793943","0.0-152.0","28","1","ITSR","v1.0","5043.899999976158","How fast was the repeating tone relative to the metronome?","","response","","3","302","0","100"
"audio-multiple-response","172","797697","0.0-153.0","28","1","ITSR","v1.0","","stimuli/reference_sequence.wav","","metronome","","5","425","1",""
"audio-multiple-response","173","801407","0.0-154.0","28","1","ITSR","v1.0","","stimuli/sequence_1_5_425_1.wav","","tones","","5","425","1",""
"html-slider-response","174","809668","0.0-155.0","28","1","ITSR","v1.0","8258.399999976158","How fast was the repeating tone relative to the metronome?","","response","","5","425","1","51"
"audio-multiple-response","175","813417","0.0-156.0","28","1","ITSR","v1.0","","stimuli/reference_sequence.wav","","metronome","","2","599","2",""
"audio-multiple-response","176","817827","0.0-157.0","28","1","ITSR","v1.0","","stimuli/sequence_1_2_599_2.wav","","tones","","2","599","2",""
"html-slider-response","177","822050","0.0-158.0","28","1","ITSR","v1.0","4220.600000023842","How fast was the repeating tone relative to the metronome?","","response","","2","599","2","51"
"audio-multiple-response","178","825797","0.0-159.0","28","1","ITSR","v1.0","","stimuli/reference_sequence.wav","","metronome","","0","329","0",""
"audio-multiple-response","179","829117","0.0-160.0","28","1","ITSR","v1.0","","stimuli/sequence_1_0_329_0.wav","","tones","","0","329","0",""
"html-slider-response","180","830882","0.0-161.0","28","1","ITSR","v1.0","1763.8999999761581","How fast was the repeating tone relative to the metronome?","","response","","0","329","0","100"
"audio-multiple-response","181","834637","0.0-162.0","28","1","ITSR","v1.0","","stimuli/reference_sequence.wav","","metronome","","2","652","2",""
"audio-multiple-response","182","839257","0.0-163.0","28","1","ITSR","v1.0","","stimuli/sequence_1_2_652_2.wav","","tones","","2","652","2",""
"html-slider-response","183","842500","0.0-164.0","28","1","ITSR","v1.0","3243","How fast was the repeating tone relative to the metronome?","","response","","2","652","2","0"
"audio-multiple-response","184","846257","0.0-165.0","28","1","ITSR","v1.0","","stimuli/reference_sequence.wav","","metronome","","1","302","2",""
"audio-multiple-response","185","849477","0.0-166.0","28","1","ITSR","v1.0","","stimuli/sequence_1_1_302_2.wav","","tones","","1","302","2",""
"html-slider-response","186","852800","0.0-167.0","28","1","ITSR","v1.0","3321.2000000476837","How fast was the repeating tone relative to the metronome?","","response","","1","302","2","100"
"audio-multiple-response","187","856567","0.0-168.0","28","1","ITSR","v1.0","","stimuli/reference_sequence.wav","","metronome","","0","425","0",""
"audio-multiple-response","188","860287","0.0-169.0","28","1","ITSR","v1.0","","stimuli/sequence_1_0_425_0.wav","","tones","","0","425","0",""
"html-slider-response","189","864950","0.0-170.0","28","1","ITSR","v1.0","4661.200000047684","How fast was the repeating tone relative to the metronome?","","response","","0","425","0","100"
"audio-multiple-response","190","868697","0.0-171.0","28","1","ITSR","v1.0","","stimuli/reference_sequence.wav","","metronome","","2","302","2",""
"audio-multiple-response","191","871907","0.0-172.0","28","1","ITSR","v1.0","","stimuli/sequence_1_2_302_2.wav","","tones","","2","302","2",""
"html-slider-response","192","873896","0.0-173.0","28","1","ITSR","v1.0","1986.5999999046326","How fast was the repeating tone relative to the metronome?","","response","","2","302","2","100"
"audio-multiple-response","193","877657","0.0-174.0","28","1","ITSR","v1.0","","stimuli/reference_sequence.wav","","metronome","","4","710","1",""
"audio-multiple-response","194","882507","0.0-175.0","28","1","ITSR","v1.0","","stimuli/sequence_1_4_710_1.wav","","tones","","4","710","1",""
"html-slider-response","195","885333","0.0-176.0","28","1","ITSR","v1.0","2823.7999999523163","How fast was the repeating tone relative to the metronome?","","response","","4","710","1","0"
"audio-multiple-response","196","889087","0.0-177.0","28","1","ITSR","v1.0","","stimuli/reference_sequence.wav","","metronome","","5","504","0",""
"audio-multiple-response","197","893117","0.0-178.0","28","1","ITSR","v1.0","","stimuli/sequence_1_5_504_0.wav","","tones","","5","504","0",""
"html-slider-response","198","897283","0.0-179.0","28","1","ITSR","v1.0","4163.299999952316","How fast was the repeating tone relative to the metronome?","","response","","5","504","0","51"
"audio-multiple-response","199","901037","0.0-180.0","28","1","ITSR","v1.0","","stimuli/reference_sequence.wav","","metronome","","0","710","1",""
"audio-multiple-response","200","905887","0.0-181.0","28","1","ITSR","v1.0","","stimuli/sequence_1_0_710_1.wav","","tones","","0","710","1",""
"html-slider-response","201","909615","0.0-182.0","28","1","ITSR","v1.0","3726.600000023842","How fast was the repeating tone relative to the metronome?","","response","","0","710","1","0"
"audio-multiple-response","202","913367","0.0-183.0","28","1","ITSR","v1.0","","stimuli/reference_sequence.wav","","metronome","","3","550","2",""
"audio-multiple-response","203","917567","0.0-184.0","28","1","ITSR","v1.0","","stimuli/sequence_1_3_550_2.wav","","tones","","3","550","2",""
"html-slider-response","204","920957","0.0-185.0","28","1","ITSR","v1.0","3388.0999999046326","How fast was the repeating tone relative to the metronome?","","response","","3","550","2","51"
"audio-multiple-response","205","924716","0.0-186.0","28","1","ITSR","v1.0","","stimuli/reference_sequence.wav","","metronome","","2","1000","1",""
"audio-multiple-response","206","930717","0.0-187.0","28","1","ITSR","v1.0","","stimuli/sequence_1_2_1000_1.wav","","tones","","2","1000","1",""
"html-slider-response","207","946931","0.0-188.0","28","1","ITSR","v1.0","16212.600000023842","How fast was the repeating tone relative to the metronome?","","response","","2","1000","1","0"
"html-button-response","208","990982","0.0-189.0","28","1","ITSR","v1.0","42534.5","<h3>You have completed section 2 of 6!</h3><p>When you are ready to continue, press the button below to begin the next section.</p><p><em>Please remember not to adjust your volume until the study has concluded.</em></p>","","break","0","","","",""
"audio-multiple-response","209","995290","0.0-190.0","28","1","ITSR","v1.0","","stimuli/reference_sequence.wav","","metronome","","0","504","2",""
"audio-multiple-response","210","999310","0.0-191.0","28","1","ITSR","v1.0","","stimuli/sequence_1_0_504_2.wav","","tones","","0","504","2",""
"html-slider-response","211","1004568","0.0-192.0","28","1","ITSR","v1.0","5256.599999904633","How fast was the repeating tone relative to the metronome?","","response","","0","504","2","49"
"audio-multiple-response","212","1008330","0.0-193.0","28","1","ITSR","v1.0","","stimuli/reference_sequence.wav","","metronome","","1","390","1",""
"audio-multiple-response","213","1011900","0.0-194.0","28","1","ITSR","v1.0","","stimuli/sequence_1_1_390_1.wav","","tones","","1","390","1",""
"html-slider-response","214","1013683","0.0-195.0","28","1","ITSR","v1.0","1781.8999999761581","How fast was the repeating tone relative to the metronome?","","response","","1","390","1","100"
"audio-multiple-response","215","1017450","0.0-196.0","28","1","ITSR","v1.0","","stimuli/reference_sequence.wav","","metronome","","5","358","0",""
"audio-multiple-response","216","1020890","0.0-197.0","28","1","ITSR","v1.0","","stimuli/sequence_1_5_358_0.wav","","tones","","5","358","0",""
"html-slider-response","217","1023375","0.0-198.0","28","1","ITSR","v1.0","2483.4000000953674","How fast was the repeating tone relative to the metronome?","","response","","5","358","0","100"
"audio-multiple-response","218","1027130","0.0-199.0","28","1","ITSR","v1.0","","stimuli/reference_sequence.wav","","metronome","","3","463","1",""
"audio-multiple-response","219","1030990","0.0-200.0","28","1","ITSR","v1.0","","stimuli/sequence_1_3_463_1.wav","","tones","","3","463","1",""
"html-slider-response","220","1045656","0.0-201.0","28","1","ITSR","v1.0","14664.800000071526","How fast was the repeating tone relative to the metronome?","","response","","3","463","1","100"
"audio-multiple-response","221","1049410","0.0-202.0","28","1","ITSR","v1.0","","stimuli/reference_sequence.wav","","metronome","","1","358","1",""
"audio-multiple-response","222","1052849","0.0-203.0","28","1","ITSR","v1.0","","stimuli/sequence_1_1_358_1.wav","","tones","","1","358","1",""
"html-slider-response","223","1058517","0.0-204.0","28","1","ITSR","v1.0","5667","How fast was the repeating tone relative to the metronome?","","response","","1","358","1","100"
"audio-multiple-response","224","1062269","0.0-205.0","28","1","ITSR","v1.0","","stimuli/reference_sequence.wav","","metronome","","5","710","1",""
"audio-multiple-response","225","1067119","0.0-206.0","28","1","ITSR","v1.0","","stimuli/sequence_1_5_710_1.wav","","tones","","5","710","1",""
"html-slider-response","226","1073476","0.0-207.0","28","1","ITSR","v1.0","6355.100000023842","How fast was the repeating tone relative to the metronome?","","response","","5","710","1","0"
"audio-multiple-response","227","1077221","0.0-208.0","28","1","ITSR","v1.0","","stimuli/reference_sequence.wav","","metronome","","3","358","1",""
"audio-multiple-response","228","1080659","0.0-209.0","28","1","ITSR","v1.0","","stimuli/sequence_1_3_358_1.wav","","tones","","3","358","1",""
"html-slider-response","229","1083136","0.0-210.0","28","1","ITSR","v1.0","2475.600000023842","How fast was the repeating tone relative to the metronome?","","response","","3","358","1","100"
"audio-multiple-response","230","1086890","0.0-211.0","28","1","ITSR","v1.0","","stimuli/reference_sequence.wav","","metronome","","2","774","1",""
"audio-multiple-response","231","1091989","0.0-212.0","28","1","ITSR","v1.0","","stimuli/sequence_1_2_774_1.wav","","tones","","2","774","1",""
"html-slider-response","232","1095306","0.0-213.0","28","1","ITSR","v1.0","3315","How fast was the repeating tone relative to the metronome?","","response","","2","774","1","0"
"audio-multiple-response","233","1099060","0.0-214.0","28","1","ITSR","v1.0","","stimuli/reference_sequence.wav","","metronome","","1","504","1",""
"audio-multiple-response","234","1103089","0.0-215.0","28","1","ITSR","v1.0","","stimuli/sequence_1_1_504_1.wav","","tones","","1","504","1",""
"html-slider-response","235","1111986","0.0-216.0","28","1","ITSR","v1.0","8896.099999904633","How fast was the repeating tone relative to the metronome?","","response","","1","504","1","50"
"audio-multiple-response","236","1115740","0.0-217.0","28","1","ITSR","v1.0","","stimuli/reference_sequence.wav","","metronome","","2","358","1",""
"audio-multiple-response","237","1119191","0.0-218.0","28","1","ITSR","v1.0","","stimuli/sequence_1_2_358_1.wav","","tones","","2","358","1",""
"html-slider-response","238","1122187","0.0-219.0","28","1","ITSR","v1.0","2995.5","How fast was the repeating tone relative to the metronome?","","response","","2","358","1","100"
"audio-multiple-response","239","1125939","0.0-220.0","28","1","ITSR","v1.0","","stimuli/reference_sequence.wav","","metronome","","3","504","1",""
"audio-multiple-response","240","1129970","0.0-221.0","28","1","ITSR","v1.0","","stimuli/sequence_1_3_504_1.wav","","tones","","3","504","1",""
"html-slider-response","241","1134038","0.0-222.0","28","1","ITSR","v1.0","4066.2000000476837","How fast was the repeating tone relative to the metronome?","","response","","3","504","1","52"
"audio-multiple-response","242","1137790","0.0-223.0","28","1","ITSR","v1.0","","stimuli/reference_sequence.wav","","metronome","","0","774","2",""
"audio-multiple-response","243","1142890","0.0-224.0","28","1","ITSR","v1.0","","stimuli/sequence_1_0_774_2.wav","","tones","","0","774","2",""
"html-slider-response","244","1147014","0.0-225.0","28","1","ITSR","v1.0","4121.800000071526","How fast was the repeating tone relative to the metronome?","","response","","0","774","2","0"
"audio-multiple-response","245","1150769","0.0-226.0","28","1","ITSR","v1.0","","stimuli/reference_sequence.wav","","metronome","","3","1000","0",""
"audio-multiple-response","246","1156779","0.0-227.0","28","1","ITSR","v1.0","","stimuli/sequence_1_3_1000_0.wav","","tones","","3","1000","0",""
"html-slider-response","247","1159483","0.0-228.0","28","1","ITSR","v1.0","2702.7000000476837","How fast was the repeating tone relative to the metronome?","","response","","3","1000","0","0"
"audio-multiple-response","248","1163229","0.0-229.0","28","1","ITSR","v1.0","","stimuli/reference_sequence.wav","","metronome","","5","599","2",""
"audio-multiple-response","249","1167639","0.0-230.0","28","1","ITSR","v1.0","","stimuli/sequence_1_5_599_2.wav","","tones","","5","599","2",""
"html-slider-response","250","1170682","0.0-231.0","28","1","ITSR","v1.0","3041.9000000953674","How fast was the repeating tone relative to the metronome?","","response","","5","599","2","50"
"audio-multiple-response","251","1174449","0.0-232.0","28","1","ITSR","v1.0","","stimuli/reference_sequence.wav","","metronome","","4","652","0",""
"audio-multiple-response","252","1179060","0.0-233.0","28","1","ITSR","v1.0","","stimuli/sequence_1_4_652_0.wav","","tones","","4","652","0",""
"html-slider-response","253","1181697","0.0-234.0","28","1","ITSR","v1.0","2635.5","How fast was the repeating tone relative to the metronome?","","response","","4","652","0","0"
"audio-multiple-response","254","1185459","0.0-235.0","28","1","ITSR","v1.0","","stimuli/reference_sequence.wav","","metronome","","2","390","2",""
"audio-multiple-response","255","1189020","0.0-236.0","28","1","ITSR","v1.0","","stimuli/sequence_1_2_390_2.wav","","tones","","2","390","2",""
"html-slider-response","256","1190932","0.0-237.0","28","1","ITSR","v1.0","1909.3000000715256","How fast was the repeating tone relative to the metronome?","","response","","2","390","2","100"
"audio-multiple-response","257","1194690","0.0-238.0","28","1","ITSR","v1.0","","stimuli/reference_sequence.wav","","metronome","","4","843","2",""
"audio-multiple-response","258","1200090","0.0-239.0","28","1","ITSR","v1.0","","stimuli/sequence_1_4_843_2.wav","","tones","","4","843","2",""
"html-slider-response","259","1202084","0.0-240.0","28","1","ITSR","v1.0","1993.5999999046326","How fast was the repeating tone relative to the metronome?","","response","","4","843","2","0"
"audio-multiple-response","260","1205850","0.0-241.0","28","1","ITSR","v1.0","","stimuli/reference_sequence.wav","","metronome","","0","390","2",""
"audio-multiple-response","261","1209420","0.0-242.0","28","1","ITSR","v1.0","","stimuli/sequence_1_0_390_2.wav","","tones","","0","390","2",""
"html-slider-response","262","1211443","0.0-243.0","28","1","ITSR","v1.0","2022.5","How fast was the repeating tone relative to the metronome?","","response","","0","390","2","100"
"audio-multiple-response","263","1215209","0.0-244.0","28","1","ITSR","v1.0","","stimuli/reference_sequence.wav","","metronome","","1","843","0",""
"audio-multiple-response","264","1220600","0.0-245.0","28","1","ITSR","v1.0","","stimuli/sequence_1_1_843_0.wav","","tones","","1","843","0",""
"html-slider-response","265","1228513","0.0-246.0","28","1","ITSR","v1.0","7911.100000023842","How fast was the repeating tone relative to the metronome?","","response","","1","843","0","0"
"audio-multiple-response","266","1232260","0.0-247.0","28","1","ITSR","v1.0","","stimuli/reference_sequence.wav","","metronome","","3","774","1",""
"audio-multiple-response","267","1237360","0.0-248.0","28","1","ITSR","v1.0","","stimuli/sequence_1_3_774_1.wav","","tones","","3","774","1",""
"html-slider-response","268","1239817","0.0-249.0","28","1","ITSR","v1.0","2455","How fast was the repeating tone relative to the metronome?","","response","","3","774","1","0"
"audio-multiple-response","269","1243570","0.0-250.0","28","1","ITSR","v1.0","","stimuli/reference_sequence.wav","","metronome","","5","390","2",""
"audio-multiple-response","270","1247150","0.0-251.0","28","1","ITSR","v1.0","","stimuli/sequence_1_5_390_2.wav","","tones","","5","390","2",""
"html-slider-response","271","1249144","0.0-252.0","28","1","ITSR","v1.0","1993.2000000476837","How fast was the repeating tone relative to the metronome?","","response","","5","390","2","100"
"audio-multiple-response","272","1252890","0.0-253.0","28","1","ITSR","v1.0","","stimuli/reference_sequence.wav","","metronome","","4","302","1",""
"audio-multiple-response","273","1256100","0.0-254.0","28","1","ITSR","v1.0","","stimuli/sequence_1_4_302_1.wav","","tones","","4","302","1",""
"html-slider-response","274","1258796","0.0-255.0","28","1","ITSR","v1.0","2694.399999976158","How fast was the repeating tone relative to the metronome?","","response","","4","302","1","100"
"audio-multiple-response","275","1262550","0.0-256.0","28","1","ITSR","v1.0","","stimuli/reference_sequence.wav","","metronome","","5","1000","2",""
"audio-multiple-response","276","1268560","0.0-257.0","28","1","ITSR","v1.0","","stimuli/sequence_1_5_1000_2.wav","","tones","","5","1000","2",""
"html-slider-response","277","1271422","0.0-258.0","28","1","ITSR","v1.0","2860.399999976158","How fast was the repeating tone relative to the metronome?","","response","","5","1000","2","0"
"audio-multiple-response","278","1275180","0.0-259.0","28","1","ITSR","v1.0","","stimuli/reference_sequence.wav","","metronome","","4","425","2",""
"audio-multiple-response","279","1278890","0.0-260.0","28","1","ITSR","v1.0","","stimuli/sequence_1_4_425_2.wav","","tones","","4","425","2",""
"html-slider-response","280","1283978","0.0-261.0","28","1","ITSR","v1.0","5087.099999904633","How fast was the repeating tone relative to the metronome?","","response","","4","425","2","100"
"audio-multiple-response","281","1287730","0.0-262.0","28","1","ITSR","v1.0","","stimuli/reference_sequence.wav","","metronome","","2","550","1",""
"audio-multiple-response","282","1291940","0.0-263.0","28","1","ITSR","v1.0","","stimuli/sequence_1_2_550_1.wav","","tones","","2","550","1",""
"html-slider-response","283","1294986","0.0-264.0","28","1","ITSR","v1.0","3044.9000000953674","How fast was the repeating tone relative to the metronome?","","response","","2","550","1","52"
"audio-multiple-response","284","1298730","0.0-265.0","28","1","ITSR","v1.0","","stimuli/reference_sequence.wav","","metronome","","0","302","2",""
"audio-multiple-response","285","1301941","0.0-266.0","28","1","ITSR","v1.0","","stimuli/sequence_1_0_302_2.wav","","tones","","0","302","2",""
"html-slider-response","286","1303478","0.0-267.0","28","1","ITSR","v1.0","1533.8999999761581","How fast was the repeating tone relative to the metronome?","","response","","0","302","2","100"
"audio-multiple-response","287","1307252","0.0-268.0","28","1","ITSR","v1.0","","stimuli/reference_sequence.wav","","metronome","","4","550","0",""
"audio-multiple-response","288","1311450","0.0-269.0","28","1","ITSR","v1.0","","stimuli/sequence_1_4_550_0.wav","","tones","","4","550","0",""
"html-slider-response","289","1317842","0.0-270.0","28","1","ITSR","v1.0","6389.5","How fast was the repeating tone relative to the metronome?","","response","","4","550","0","51"
"audio-multiple-response","290","1321590","0.0-271.0","28","1","ITSR","v1.0","","stimuli/reference_sequence.wav","","metronome","","2","843","0",""
"audio-multiple-response","291","1326980","0.0-272.0","28","1","ITSR","v1.0","","stimuli/sequence_1_2_843_0.wav","","tones","","2","843","0",""
"html-slider-response","292","1329508","0.0-273.0","28","1","ITSR","v1.0","2527.7999999523163","How fast was the repeating tone relative to the metronome?","","response","","2","843","0","0"
"audio-multiple-response","293","1333260","0.0-274.0","28","1","ITSR","v1.0","","stimuli/reference_sequence.wav","","metronome","","1","710","1",""
"audio-multiple-response","294","1338100","0.0-275.0","28","1","ITSR","v1.0","","stimuli/sequence_1_1_710_1.wav","","tones","","1","710","1",""
"html-slider-response","295","1339864","0.0-276.0","28","1","ITSR","v1.0","1762.2999999523163","How fast was the repeating tone relative to the metronome?","","response","","1","710","1","0"
"audio-multiple-response","296","1343610","0.0-277.0","28","1","ITSR","v1.0","","stimuli/reference_sequence.wav","","metronome","","0","918","2",""
"audio-multiple-response","297","1349289","0.0-278.0","28","1","ITSR","v1.0","","stimuli/sequence_1_0_918_2.wav","","tones","","0","918","2",""
"html-slider-response","298","1351194","0.0-279.0","28","1","ITSR","v1.0","1904","How fast was the repeating tone relative to the metronome?","","response","","0","918","2","0"
"html-button-response","299","1705608","0.0-280.0","28","1","ITSR","v1.0","352911.89999997616","<h3>You have completed section 3 of 6!</h3><p>When you are ready to continue, press the button below to begin the next section.</p><p><em>Please remember not to adjust your volume until the study has concluded.</em></p>","","break","0","","","",""
"audio-multiple-response","300","1709880","0.0-281.0","28","1","ITSR","v1.0","","stimuli/reference_sequence.wav","","metronome","","3","550","0",""
"audio-multiple-response","301","1714082","0.0-282.0","28","1","ITSR","v1.0","","stimuli/sequence_1_3_550_0.wav","","tones","","3","550","0",""
"html-slider-response","302","1716275","0.0-283.0","28","1","ITSR","v1.0","2191.8000000715256","How fast was the repeating tone relative to the metronome?","","response","","3","550","0","51"
"audio-multiple-response","303","1720019","0.0-284.0","28","1","ITSR","v1.0","","stimuli/reference_sequence.wav","","metronome","","1","329","2",""
"audio-multiple-response","304","1723349","0.0-285.0","28","1","ITSR","v1.0","","stimuli/sequence_1_1_329_2.wav","","tones","","1","329","2",""
"html-slider-response","305","1725080","0.0-286.0","28","1","ITSR","v1.0","1729.6000000238419","How fast was the repeating tone relative to the metronome?","","response","","1","329","2","100"
"audio-multiple-response","306","1728840","0.0-287.0","28","1","ITSR","v1.0","","stimuli/reference_sequence.wav","","metronome","","5","918","1",""
"audio-multiple-response","307","1734520","0.0-288.0","28","1","ITSR","v1.0","","stimuli/sequence_1_5_918_1.wav","","tones","","5","918","1",""
"html-slider-response","308","1736149","0.0-289.0","28","1","ITSR","v1.0","1627.5","How fast was the repeating tone relative to the metronome?","","response","","5","918","1","0"
"audio-multiple-response","309","1739920","0.0-290.0","28","1","ITSR","v1.0","","stimuli/reference_sequence.wav","","metronome","","1","504","2",""
"audio-multiple-response","310","1743939","0.0-291.0","28","1","ITSR","v1.0","","stimuli/sequence_1_1_504_2.wav","","tones","","1","504","2",""
"html-slider-response","311","1746430","0.0-292.0","28","1","ITSR","v1.0","2488.4000000953674","How fast was the repeating tone relative to the metronome?","","response","","1","504","2","49"
"audio-multiple-response","312","1750179","0.0-293.0","28","1","ITSR","v1.0","","stimuli/reference_sequence.wav","","metronome","","5","302","1",""
"audio-multiple-response","313","1753389","0.0-294.0","28","1","ITSR","v1.0","","stimuli/sequence_1_5_302_1.wav","","tones","","5","302","1",""
"html-slider-response","314","1754837","0.0-295.0","28","1","ITSR","v1.0","1446.1999999284744","How fast was the repeating tone relative to the metronome?","","response","","5","302","1","100"
"audio-multiple-response","315","1758600","0.0-296.0","28","1","ITSR","v1.0","","stimuli/reference_sequence.wav","","metronome","","3","390","2",""
"audio-multiple-response","316","1762170","0.0-297.0","28","1","ITSR","v1.0","","stimuli/sequence_1_3_390_2.wav","","tones","","3","390","2",""
"html-slider-response","317","1765039","0.0-298.0","28","1","ITSR","v1.0","2868.399999976158","How fast was the repeating tone relative to the metronome?","","response","","3","390","2","100"
"audio-multiple-response","318","1768799","0.0-299.0","28","1","ITSR","v1.0","","stimuli/reference_sequence.wav","","metronome","","0","710","2",""
"audio-multiple-response","319","1773639","0.0-300.0","28","1","ITSR","v1.0","","stimuli/sequence_1_0_710_2.wav","","tones","","0","710","2",""
"html-slider-response","320","1777291","0.0-301.0","28","1","ITSR","v1.0","3649.899999976158","How fast was the repeating tone relative to the metronome?","","response","","0","710","2","0"
"audio-multiple-response","321","1781050","0.0-302.0","28","1","ITSR","v1.0","","stimuli/reference_sequence.wav","","metronome","","1","918","2",""
"audio-multiple-response","322","1786739","0.0-303.0","28","1","ITSR","v1.0","","stimuli/sequence_1_1_918_2.wav","","tones","","1","918","2",""
"html-slider-response","323","1794455","0.0-304.0","28","1","ITSR","v1.0","7714.800000071526","How fast was the repeating tone relative to the metronome?","","response","","1","918","2","0"
"audio-multiple-response","324","1798209","0.0-305.0","28","1","ITSR","v1.0","","stimuli/reference_sequence.wav","","metronome","","2","390","2",""
"audio-multiple-response","325","1801769","0.0-306.0","28","1","ITSR","v1.0","","stimuli/sequence_1_2_390_2.wav","","tones","","2","390","2",""
"html-slider-response","326","1807529","0.0-307.0","28","1","ITSR","v1.0","5757.399999976158","How fast was the repeating tone relative to the metronome?","","response","","2","390","2","100"
"audio-multiple-response","327","1811289","0.0-308.0","28","1","ITSR","v1.0","","stimuli/reference_sequence.wav","","metronome","","3","1000","1",""
"audio-multiple-response","328","1817299","0.0-309.0","28","1","ITSR","v1.0","","stimuli/sequence_1_3_1000_1.wav","","tones","","3","1000","1",""
"html-slider-response","329","1825065","0.0-310.0","28","1","ITSR","v1.0","7764.600000023842","How fast was the repeating tone relative to the metronome?","","response","","3","1000","1","0"
"audio-multiple-response","330","1828819","0.0-311.0","28","1","ITSR","v1.0","","stimuli/reference_sequence.wav","","metronome","","4","550","1",""
"audio-multiple-response","331","1833039","0.0-312.0","28","1","ITSR","v1.0","","stimuli/sequence_1_4_550_1.wav","","tones","","4","550","1",""
"html-slider-response","332","1835847","0.0-313.0","28","1","ITSR","v1.0","2804.7999999523163","How fast was the repeating tone relative to the metronome?","","response","","4","550","1","50"
"audio-multiple-response","333","1839599","0.0-314.0","28","1","ITSR","v1.0","","stimuli/reference_sequence.wav","","metronome","","2","918","1",""
"audio-multiple-response","334","1845279","0.0-315.0","28","1","ITSR","v1.0","","stimuli/sequence_1_2_918_1.wav","","tones","","2","918","1",""
"html-slider-response","335","1847931","0.0-316.0","28","1","ITSR","v1.0","2649.5","How fast was the repeating tone relative to the metronome?","","response","","2","918","1","0"
"audio-multiple-response","336","1851679","0.0-317.0","28","1","ITSR","v1.0","","stimuli/reference_sequence.wav","","metronome","","4","302","1",""
"audio-multiple-response","337","1854889","0.0-318.0","28","1","ITSR","v1.0","","stimuli/sequence_1_4_302_1.wav","","tones","","4","302","1",""
"html-slider-response","338","1858289","0.0-319.0","28","1","ITSR","v1.0","3398.600000023842","How fast was the repeating tone relative to the metronome?","","response","","4","302","1","100"
"audio-multiple-response","339","1862049","0.0-320.0","28","1","ITSR","v1.0","","stimuli/reference_sequence.wav","","metronome","","5","463","0",""
"audio-multiple-response","340","1865910","0.0-321.0","28","1","ITSR","v1.0","","stimuli/sequence_1_5_463_0.wav","","tones","","5","463","0",""
"html-slider-response","341","1869999","0.0-322.0","28","1","ITSR","v1.0","4087.2000000476837","How fast was the repeating tone relative to the metronome?","","response","","5","463","0","47"
"audio-multiple-response","342","1873760","0.0-323.0","28","1","ITSR","v1.0","","stimuli/reference_sequence.wav","","metronome","","3","302","2",""
"audio-multiple-response","343","1876970","0.0-324.0","28","1","ITSR","v1.0","","stimuli/sequence_1_3_302_2.wav","","tones","","3","302","2",""
"html-slider-response","344","1879344","0.0-325.0","28","1","ITSR","v1.0","2371.8000000715256","How fast was the repeating tone relative to the metronome?","","response","","3","302","2","100"
"audio-multiple-response","345","1883100","0.0-326.0","28","1","ITSR","v1.0","","stimuli/reference_sequence.wav","","metronome","","0","390","1",""
"audio-multiple-response","346","1886669","0.0-327.0","28","1","ITSR","v1.0","","stimuli/sequence_1_0_390_1.wav","","tones","","0","390","1",""
"html-slider-response","347","1902627","0.0-328.0","28","1","ITSR","v1.0","15955.700000047684","How fast was the repeating tone relative to the metronome?","","response","","0","390","1","100"
"audio-multiple-response","348","1906380","0.0-329.0","28","1","ITSR","v1.0","","stimuli/reference_sequence.wav","","metronome","","5","710","0",""
"audio-multiple-response","349","1911220","0.0-330.0","28","1","ITSR","v1.0","","stimuli/sequence_1_5_710_0.wav","","tones","","5","710","0",""
"html-slider-response","350","1914290","0.0-331.0","28","1","ITSR","v1.0","3068.6999999284744","How fast was the repeating tone relative to the metronome?","","response","","5","710","0","0"
"audio-multiple-response","351","1918049","0.0-332.0","28","1","ITSR","v1.0","","stimuli/reference_sequence.wav","","metronome","","4","463","0",""
"audio-multiple-response","352","1921909","0.0-333.0","28","1","ITSR","v1.0","","stimuli/sequence_1_4_463_0.wav","","tones","","4","463","0",""
"html-slider-response","353","1929912","0.0-334.0","28","1","ITSR","v1.0","8000.200000047684","How fast was the repeating tone relative to the metronome?","","response","","4","463","0","49"
"audio-multiple-response","354","1933659","0.0-335.0","28","1","ITSR","v1.0","","stimuli/reference_sequence.wav","","metronome","","1","652","1",""
"audio-multiple-response","355","1938269","0.0-336.0","28","1","ITSR","v1.0","","stimuli/sequence_1_1_652_1.wav","","tones","","1","652","1",""
"html-slider-response","356","1944674","0.0-337.0","28","1","ITSR","v1.0","6402.899999976158","How fast was the repeating tone relative to the metronome?","","response","","1","652","1","52"
"audio-multiple-response","357","1948439","0.0-338.0","28","1","ITSR","v1.0","","stimuli/reference_sequence.wav","","metronome","","2","302","2",""
"audio-multiple-response","358","1951649","0.0-339.0","28","1","ITSR","v1.0","","stimuli/sequence_1_2_302_2.wav","","tones","","2","302","2",""
"html-slider-response","359","1966186","0.0-340.0","28","1","ITSR","v1.0","14535.800000071526","How fast was the repeating tone relative to the metronome?","","response","","2","302","2","100"
"audio-multiple-response","360","1969929","0.0-341.0","28","1","ITSR","v1.0","","stimuli/reference_sequence.wav","","metronome","","3","652","1",""
"audio-multiple-response","361","1974549","0.0-342.0","28","1","ITSR","v1.0","","stimuli/sequence_1_3_652_1.wav","","tones","","3","652","1",""
"html-slider-response","362","1978063","0.0-343.0","28","1","ITSR","v1.0","3511.5999999046326","How fast was the repeating tone relative to the metronome?","","response","","3","652","1","51"
"audio-multiple-response","363","1981820","0.0-344.0","28","1","ITSR","v1.0","","stimuli/reference_sequence.wav","","metronome","","1","463","2",""
"audio-multiple-response","364","1985690","0.0-345.0","28","1","ITSR","v1.0","","stimuli/sequence_1_1_463_2.wav","","tones","","1","463","2",""
"html-slider-response","365","1994594","0.0-346.0","28","1","ITSR","v1.0","8902.299999952316","How fast was the repeating tone relative to the metronome?","","response","","1","463","2","50"
"audio-multiple-response","366","1998360","0.0-347.0","28","1","ITSR","v1.0","","stimuli/reference_sequence.wav","","metronome","","0","504","1",""
"audio-multiple-response","367","2002380","0.0-348.0","28","1","ITSR","v1.0","","stimuli/sequence_1_0_504_1.wav","","tones","","0","504","1",""
"html-slider-response","368","2007166","0.0-349.0","28","1","ITSR","v1.0","4785.700000047684","How fast was the repeating tone relative to the metronome?","","response","","0","504","1","49"
"audio-multiple-response","369","2010920","0.0-350.0","28","1","ITSR","v1.0","","stimuli/reference_sequence.wav","","metronome","","4","652","2",""
"audio-multiple-response","370","2015539","0.0-351.0","28","1","ITSR","v1.0","","stimuli/sequence_1_4_652_2.wav","","tones","","4","652","2",""
"html-slider-response","371","2021395","0.0-352.0","28","1","ITSR","v1.0","5854.600000023842","How fast was the repeating tone relative to the metronome?","","response","","4","652","2","50"
"audio-multiple-response","372","2025159","0.0-353.0","28","1","ITSR","v1.0","","stimuli/reference_sequence.wav","","metronome","","2","504","1",""
"audio-multiple-response","373","2029190","0.0-354.0","28","1","ITSR","v1.0","","stimuli/sequence_1_2_504_1.wav","","tones","","2","504","1",""
"html-slider-response","374","2039080","0.0-355.0","28","1","ITSR","v1.0","9888.200000047684","How fast was the repeating tone relative to the metronome?","","response","","2","504","1","49"
"audio-multiple-response","375","2042839","0.0-356.0","28","1","ITSR","v1.0","","stimuli/reference_sequence.wav","","metronome","","0","302","1",""
"audio-multiple-response","376","2046059","0.0-357.0","28","1","ITSR","v1.0","","stimuli/sequence_1_0_302_1.wav","","tones","","0","302","1",""
"html-slider-response","377","2051382","0.0-358.0","28","1","ITSR","v1.0","5321.899999976158","How fast was the repeating tone relative to the metronome?","","response","","0","302","1","100"
"audio-multiple-response","378","2055139","0.0-359.0","28","1","ITSR","v1.0","","stimuli/reference_sequence.wav","","metronome","","2","652","2",""
"audio-multiple-response","379","2059760","0.0-360.0","28","1","ITSR","v1.0","","stimuli/sequence_1_2_652_2.wav","","tones","","2","652","2",""
"html-slider-response","380","2068502","0.0-361.0","28","1","ITSR","v1.0","8739.899999976158","How fast was the repeating tone relative to the metronome?","","response","","2","652","2","49"
"audio-multiple-response","381","2072249","0.0-362.0","28","1","ITSR","v1.0","","stimuli/reference_sequence.wav","","metronome","","0","843","2",""
"audio-multiple-response","382","2077639","0.0-363.0","28","1","ITSR","v1.0","","stimuli/sequence_1_0_843_2.wav","","tones","","0","843","2",""
"html-slider-response","383","2080091","0.0-364.0","28","1","ITSR","v1.0","2449.100000023842","How fast was the repeating tone relative to the metronome?","","response","","0","843","2","0"
"audio-multiple-response","384","2083840","0.0-365.0","28","1","ITSR","v1.0","","stimuli/reference_sequence.wav","","metronome","","5","599","1",""
"audio-multiple-response","385","2088239","0.0-366.0","28","1","ITSR","v1.0","","stimuli/sequence_1_5_599_1.wav","","tones","","5","599","1",""
"html-slider-response","386","2098821","0.0-367.0","28","1","ITSR","v1.0","10580.399999976158","How fast was the repeating tone relative to the metronome?","","response","","5","599","1","52"
"audio-multiple-response","387","2102579","0.0-368.0","28","1","ITSR","v1.0","","stimuli/reference_sequence.wav","","metronome","","4","843","1",""
"audio-multiple-response","388","2107959","0.0-369.0","28","1","ITSR","v1.0","","stimuli/sequence_1_4_843_1.wav","","tones","","4","843","1",""
"html-slider-response","389","2111164","0.0-370.0","28","1","ITSR","v1.0","3203","How fast was the repeating tone relative to the metronome?","","response","","4","843","1","0"
"html-button-response","390","2259407","0.0-371.0","28","1","ITSR","v1.0","146739.09999990463","<h3>You have completed section 4 of 6!</h3><p>When you are ready to continue, press the button below to begin the next section.</p><p><em>Please remember not to adjust your volume until the study has concluded.</em></p>","","break","0","","","",""
"audio-multiple-response","391","2263709","0.0-372.0","28","1","ITSR","v1.0","","stimuli/reference_sequence.wav","","metronome","","1","302","1",""
"audio-multiple-response","392","2266920","0.0-373.0","28","1","ITSR","v1.0","","stimuli/sequence_1_1_302_1.wav","","tones","","1","302","1",""
"html-slider-response","393","2276254","0.0-374.0","28","1","ITSR","v1.0","9332.200000047684","How fast was the repeating tone relative to the metronome?","","response","","1","302","1","100"
"audio-multiple-response","394","2280030","0.0-375.0","28","1","ITSR","v1.0","","stimuli/reference_sequence.wav","","metronome","","5","425","1",""
"audio-multiple-response","395","2283729","0.0-376.0","28","1","ITSR","v1.0","","stimuli/sequence_1_5_425_1.wav","","tones","","5","425","1",""
"html-slider-response","396","2286535","0.0-377.0","28","1","ITSR","v1.0","2804.5","How fast was the repeating tone relative to the metronome?","","response","","5","425","1","100"
"audio-multiple-response","397","2290280","0.0-378.0","28","1","ITSR","v1.0","","stimuli/reference_sequence.wav","","metronome","","4","1000","0",""
"audio-multiple-response","398","2296280","0.0-379.0","28","1","ITSR","v1.0","","stimuli/sequence_1_4_1000_0.wav","","tones","","4","1000","0",""
"html-slider-response","399","2297540","0.0-380.0","28","1","ITSR","v1.0","1259","How fast was the repeating tone relative to the metronome?","","response","","4","1000","0","0"
"audio-multiple-response","400","2301309","0.0-381.0","28","1","ITSR","v1.0","","stimuli/reference_sequence.wav","","metronome","","1","390","1",""
"audio-multiple-response","401","2304869","0.0-382.0","28","1","ITSR","v1.0","","stimuli/sequence_1_1_390_1.wav","","tones","","1","390","1",""
"html-slider-response","402","2306468","0.0-383.0","28","1","ITSR","v1.0","1596.8000000715256","How fast was the repeating tone relative to the metronome?","","response","","1","390","1","100"
"audio-multiple-response","403","2310230","0.0-384.0","28","1","ITSR","v1.0","","stimuli/reference_sequence.wav","","metronome","","5","1000","2",""
"audio-multiple-response","404","2316239","0.0-385.0","28","1","ITSR","v1.0","","stimuli/sequence_1_5_1000_2.wav","","tones","","5","1000","2",""
"html-slider-response","405","2317928","0.0-386.0","28","1","ITSR","v1.0","1686.5","How fast was the repeating tone relative to the metronome?","","response","","5","1000","2","0"
"audio-multiple-response","406","2321689","0.0-387.0","28","1","ITSR","v1.0","","stimuli/reference_sequence.wav","","metronome","","0","425","2",""
"audio-multiple-response","407","2325399","0.0-388.0","28","1","ITSR","v1.0","","stimuli/sequence_1_0_425_2.wav","","tones","","0","425","2",""
"html-slider-response","408","2328063","0.0-389.0","28","1","ITSR","v1.0","2661.100000023842","How fast was the repeating tone relative to the metronome?","","response","","0","425","2","52"
"audio-multiple-response","409","2331829","0.0-390.0","28","1","ITSR","v1.0","","stimuli/reference_sequence.wav","","metronome","","1","599","1",""
"audio-multiple-response","410","2336239","0.0-391.0","28","1","ITSR","v1.0","","stimuli/sequence_1_1_599_1.wav","","tones","","1","599","1",""
"html-slider-response","411","2340206","0.0-392.0","28","1","ITSR","v1.0","3965.600000023842","How fast was the repeating tone relative to the metronome?","","response","","1","599","1","48"
"audio-multiple-response","412","2343959","0.0-393.0","28","1","ITSR","v1.0","","stimuli/reference_sequence.wav","","metronome","","3","918","2",""
"audio-multiple-response","413","2349648","0.0-394.0","28","1","ITSR","v1.0","","stimuli/sequence_1_3_918_2.wav","","tones","","3","918","2",""
"html-slider-response","414","2350743","0.0-395.0","28","1","ITSR","v1.0","1093.4000000953674","How fast was the repeating tone relative to the metronome?","","response","","3","918","2","0"
"audio-multiple-response","415","2354509","0.0-396.0","28","1","ITSR","v1.0","","stimuli/reference_sequence.wav","","metronome","","2","550","0",""
"audio-multiple-response","416","2358719","0.0-397.0","28","1","ITSR","v1.0","","stimuli/sequence_1_2_550_0.wav","","tones","","2","550","0",""
"html-slider-response","417","2365827","0.0-398.0","28","1","ITSR","v1.0","7106.799999952316","How fast was the repeating tone relative to the metronome?","","response","","2","550","0","48"
"audio-multiple-response","418","2369589","0.0-399.0","28","1","ITSR","v1.0","","stimuli/reference_sequence.wav","","metronome","","3","774","0",""
"audio-multiple-response","419","2374689","0.0-400.0","28","1","ITSR","v1.0","","stimuli/sequence_1_3_774_0.wav","","tones","","3","774","0",""
"html-slider-response","420","2376917","0.0-401.0","28","1","ITSR","v1.0","2226.2999999523163","How fast was the repeating tone relative to the metronome?","","response","","3","774","0","0"
"audio-multiple-response","421","2380679","0.0-402.0","28","1","ITSR","v1.0","","stimuli/reference_sequence.wav","","metronome","","4","329","2",""
"audio-multiple-response","422","2384009","0.0-403.0","28","1","ITSR","v1.0","","stimuli/sequence_1_4_329_2.wav","","tones","","4","329","2",""
"html-slider-response","423","2386012","0.0-404.0","28","1","ITSR","v1.0","2000.2999999523163","How fast was the repeating tone relative to the metronome?","","response","","4","329","2","100"
"audio-multiple-response","424","2389760","0.0-405.0","28","1","ITSR","v1.0","","stimuli/reference_sequence.wav","","metronome","","3","463","1",""
"audio-multiple-response","425","2393629","0.0-406.0","28","1","ITSR","v1.0","","stimuli/sequence_1_3_463_1.wav","","tones","","3","463","1",""
"html-slider-response","426","2398568","0.0-407.0","28","1","ITSR","v1.0","4936.600000023842","How fast was the repeating tone relative to the metronome?","","response","","3","463","1","46"
"audio-multiple-response","427","2402330","0.0-408.0","28","1","ITSR","v1.0","","stimuli/reference_sequence.wav","","metronome","","2","1000","0",""
"audio-multiple-response","428","2408329","0.0-409.0","28","1","ITSR","v1.0","","stimuli/sequence_1_2_1000_0.wav","","tones","","2","1000","0",""
"html-slider-response","429","2409794","0.0-410.0","28","1","ITSR","v1.0","1464.2000000476837","How fast was the repeating tone relative to the metronome?","","response","","2","1000","0","0"
"audio-multiple-response","430","2413550","0.0-411.0","28","1","ITSR","v1.0","","stimuli/reference_sequence.wav","","metronome","","1","774","0",""
"audio-multiple-response","431","2418649","0.0-412.0","28","1","ITSR","v1.0","","stimuli/sequence_1_1_774_0.wav","","tones","","1","774","0",""
"html-slider-response","432","2420847","0.0-413.0","28","1","ITSR","v1.0","2196.2000000476837","How fast was the repeating tone relative to the metronome?","","response","","1","774","0","51"
"audio-multiple-response","433","2424600","0.0-414.0","28","1","ITSR","v1.0","","stimuli/reference_sequence.wav","","metronome","","4","390","2",""
"audio-multiple-response","434","2428169","0.0-415.0","28","1","ITSR","v1.0","","stimuli/sequence_1_4_390_2.wav","","tones","","4","390","2",""
"html-slider-response","435","2429828","0.0-416.0","28","1","ITSR","v1.0","1656.2000000476837","How fast was the repeating tone relative to the metronome?","","response","","4","390","2","100"
"audio-multiple-response","436","2433589","0.0-417.0","28","1","ITSR","v1.0","","stimuli/reference_sequence.wav","","metronome","","2","710","1",""
"audio-multiple-response","437","2438429","0.0-418.0","28","1","ITSR","v1.0","","stimuli/sequence_1_2_710_1.wav","","tones","","2","710","1",""
"html-slider-response","438","2441370","0.0-419.0","28","1","ITSR","v1.0","2939.7999999523163","How fast was the repeating tone relative to the metronome?","","response","","2","710","1","49"
"audio-multiple-response","439","2445129","0.0-420.0","28","1","ITSR","v1.0","","stimuli/reference_sequence.wav","","metronome","","3","599","1",""
"audio-multiple-response","440","2449539","0.0-421.0","28","1","ITSR","v1.0","","stimuli/sequence_1_3_599_1.wav","","tones","","3","599","1",""
"html-slider-response","441","2451391","0.0-422.0","28","1","ITSR","v1.0","1850.1000000238419","How fast was the repeating tone relative to the metronome?","","response","","3","599","1","49"
"audio-multiple-response","442","2455149","0.0-423.0","28","1","ITSR","v1.0","","stimuli/reference_sequence.wav","","metronome","","4","774","1",""
"audio-multiple-response","443","2460249","0.0-424.0","28","1","ITSR","v1.0","","stimuli/sequence_1_4_774_1.wav","","tones","","4","774","1",""
"html-slider-response","444","2462613","0.0-425.0","28","1","ITSR","v1.0","2361.9000000953674","How fast was the repeating tone relative to the metronome?","","response","","4","774","1","0"
"audio-multiple-response","445","2466389","0.0-426.0","28","1","ITSR","v1.0","","stimuli/reference_sequence.wav","","metronome","","2","358","0",""
"audio-multiple-response","446","2469839","0.0-427.0","28","1","ITSR","v1.0","","stimuli/sequence_1_2_358_0.wav","","tones","","2","358","0",""
"html-slider-response","447","2473540","0.0-428.0","28","1","ITSR","v1.0","3699.2000000476837","How fast was the repeating tone relative to the metronome?","","response","","2","358","0","100"
"audio-multiple-response","448","2477309","0.0-429.0","28","1","ITSR","v1.0","","stimuli/reference_sequence.wav","","metronome","","5","652","2",""
"audio-multiple-response","449","2481919","0.0-430.0","28","1","ITSR","v1.0","","stimuli/sequence_1_5_652_2.wav","","tones","","5","652","2",""
"html-slider-response","450","2484717","0.0-431.0","28","1","ITSR","v1.0","2796","How fast was the repeating tone relative to the metronome?","","response","","5","652","2","50"
"audio-multiple-response","451","2488479","0.0-432.0","28","1","ITSR","v1.0","","stimuli/reference_sequence.wav","","metronome","","0","550","2",""
"audio-multiple-response","452","2492679","0.0-433.0","28","1","ITSR","v1.0","","stimuli/sequence_1_0_550_2.wav","","tones","","0","550","2",""
"html-slider-response","453","2497636","0.0-434.0","28","1","ITSR","v1.0","4955.5","How fast was the repeating tone relative to the metronome?","","response","","0","550","2","53"
"audio-multiple-response","454","2501390","0.0-435.0","28","1","ITSR","v1.0","","stimuli/reference_sequence.wav","","metronome","","3","358","0",""
"audio-multiple-response","455","2504839","0.0-436.0","28","1","ITSR","v1.0","","stimuli/sequence_1_3_358_0.wav","","tones","","3","358","0",""
"html-slider-response","456","2508153","0.0-437.0","28","1","ITSR","v1.0","3312.4000000953674","How fast was the repeating tone relative to the metronome?","","response","","3","358","0","100"
"audio-multiple-response","457","2511909","0.0-438.0","28","1","ITSR","v1.0","","stimuli/reference_sequence.wav","","metronome","","5","504","2",""
"audio-multiple-response","458","2515929","0.0-439.0","28","1","ITSR","v1.0","","stimuli/sequence_1_5_504_2.wav","","tones","","5","504","2",""
"html-slider-response","459","2518599","0.0-440.0","28","1","ITSR","v1.0","2668.8000000715256","How fast was the repeating tone relative to the metronome?","","response","","5","504","2","51"
"audio-multiple-response","460","2522349","0.0-441.0","28","1","ITSR","v1.0","","stimuli/reference_sequence.wav","","metronome","","0","358","0",""
"audio-multiple-response","461","2525789","0.0-442.0","28","1","ITSR","v1.0","","stimuli/sequence_1_0_358_0.wav","","tones","","0","358","0",""
"html-slider-response","462","2528211","0.0-443.0","28","1","ITSR","v1.0","2420.2000000476837","How fast was the repeating tone relative to the metronome?","","response","","0","358","0","100"
"audio-multiple-response","463","2531959","0.0-444.0","28","1","ITSR","v1.0","","stimuli/reference_sequence.wav","","metronome","","2","463","0",""
"audio-multiple-response","464","2535820","0.0-445.0","28","1","ITSR","v1.0","","stimuli/sequence_1_2_463_0.wav","","tones","","2","463","0",""
"html-slider-response","465","2540705","0.0-446.0","28","1","ITSR","v1.0","4883.100000023842","How fast was the repeating tone relative to the metronome?","","response","","2","463","0","49"
"audio-multiple-response","466","2544450","0.0-447.0","28","1","ITSR","v1.0","","stimuli/reference_sequence.wav","","metronome","","0","652","1",""
"audio-multiple-response","467","2549069","0.0-448.0","28","1","ITSR","v1.0","","stimuli/sequence_1_0_652_1.wav","","tones","","0","652","1",""
"html-slider-response","468","2552013","0.0-449.0","28","1","ITSR","v1.0","2941.100000023842","How fast was the repeating tone relative to the metronome?","","response","","0","652","1","52"
"audio-multiple-response","469","2555769","0.0-450.0","28","1","ITSR","v1.0","","stimuli/reference_sequence.wav","","metronome","","5","329","2",""
"audio-multiple-response","470","2559099","0.0-451.0","28","1","ITSR","v1.0","","stimuli/sequence_1_5_329_2.wav","","tones","","5","329","2",""
"html-slider-response","471","2560887","0.0-452.0","28","1","ITSR","v1.0","1786.1000000238419","How fast was the repeating tone relative to the metronome?","","response","","5","329","2","100"
"audio-multiple-response","472","2564639","0.0-453.0","28","1","ITSR","v1.0","","stimuli/reference_sequence.wav","","metronome","","0","918","1",""
"audio-multiple-response","473","2570319","0.0-454.0","28","1","ITSR","v1.0","","stimuli/sequence_1_0_918_1.wav","","tones","","0","918","1",""
"html-slider-response","474","2571957","0.0-455.0","28","1","ITSR","v1.0","1636.5","How fast was the repeating tone relative to the metronome?","","response","","0","918","1","0"
"audio-multiple-response","475","2575719","0.0-456.0","28","1","ITSR","v1.0","","stimuli/reference_sequence.wav","","metronome","","4","599","2",""
"audio-multiple-response","476","2580119","0.0-457.0","28","1","ITSR","v1.0","","stimuli/sequence_1_4_599_2.wav","","tones","","4","599","2",""
"html-slider-response","477","2582280","0.0-458.0","28","1","ITSR","v1.0","2159","How fast was the repeating tone relative to the metronome?","","response","","4","599","2","50"
"audio-multiple-response","478","2586039","0.0-459.0","28","1","ITSR","v1.0","","stimuli/reference_sequence.wav","","metronome","","1","843","1",""
"audio-multiple-response","479","2591419","0.0-460.0","28","1","ITSR","v1.0","","stimuli/sequence_1_1_843_1.wav","","tones","","1","843","1",""
"html-slider-response","480","2592991","0.0-461.0","28","1","ITSR","v1.0","1568.8999999761581","How fast was the repeating tone relative to the metronome?","","response","","1","843","1","0"
"html-button-response","481","3515721","0.0-462.0","28","1","ITSR","v1.0","921219.1000000238","<h3>You have completed section 5 of 6!</h3><p>When you are ready to continue, press the button below to begin the next section.</p><p><em>Please remember not to adjust your volume until the study has concluded.</em></p>","","break","0","","","",""
"audio-multiple-response","482","3520118","0.0-463.0","28","1","ITSR","v1.0","","stimuli/reference_sequence.wav","","metronome","","3","425","0",""
"audio-multiple-response","483","3523818","0.0-464.0","28","1","ITSR","v1.0","","stimuli/sequence_1_3_425_0.wav","","tones","","3","425","0",""
"html-slider-response","484","3533785","0.0-465.0","28","1","ITSR","v1.0","9965.700000047684","How fast was the repeating tone relative to the metronome?","","response","","3","425","0","50"
"audio-multiple-response","485","3537538","0.0-466.0","28","1","ITSR","v1.0","","stimuli/reference_sequence.wav","","metronome","","2","774","0",""
"audio-multiple-response","486","3542637","0.0-467.0","28","1","ITSR","v1.0","","stimuli/sequence_1_2_774_0.wav","","tones","","2","774","0",""
"html-slider-response","487","3549428","0.0-468.0","28","1","ITSR","v1.0","6788.5","How fast was the repeating tone relative to the metronome?","","response","","2","774","0","20"
"audio-multiple-response","488","3553177","0.0-469.0","28","1","ITSR","v1.0","","stimuli/reference_sequence.wav","","metronome","","5","843","0",""
"audio-multiple-response","489","3558558","0.0-470.0","28","1","ITSR","v1.0","","stimuli/sequence_1_5_843_0.wav","","tones","","5","843","0",""
"html-slider-response","490","3560451","0.0-471.0","28","1","ITSR","v1.0","1891.7999999523163","How fast was the repeating tone relative to the metronome?","","response","","5","843","0","4"
"audio-multiple-response","491","3564207","0.0-472.0","28","1","ITSR","v1.0","","stimuli/reference_sequence.wav","","metronome","","0","774","0",""
"audio-multiple-response","492","3569307","0.0-473.0","28","1","ITSR","v1.0","","stimuli/sequence_1_0_774_0.wav","","tones","","0","774","0",""
"html-slider-response","493","3571063","0.0-474.0","28","1","ITSR","v1.0","1753.6999999284744","How fast was the repeating tone relative to the metronome?","","response","","0","774","0","28"
"audio-multiple-response","494","3574837","0.0-475.0","28","1","ITSR","v1.0","","stimuli/reference_sequence.wav","","metronome","","4","425","1",""
"audio-multiple-response","495","3578537","0.0-476.0","28","1","ITSR","v1.0","","stimuli/sequence_1_4_425_1.wav","","tones","","4","425","1",""
"html-slider-response","496","3586376","0.0-477.0","28","1","ITSR","v1.0","7837","How fast was the repeating tone relative to the metronome?","","response","","4","425","1","72"
"audio-multiple-response","497","3590137","0.0-478.0","28","1","ITSR","v1.0","","stimuli/reference_sequence.wav","","metronome","","3","843","0",""
"audio-multiple-response","498","3595517","0.0-479.0","28","1","ITSR","v1.0","","stimuli/sequence_1_3_843_0.wav","","tones","","3","843","0",""
"html-slider-response","499","3599743","0.0-480.0","28","1","ITSR","v1.0","4223.600000023842","How fast was the repeating tone relative to the metronome?","","response","","3","843","0","23"
"audio-multiple-response","500","3603497","0.0-481.0","28","1","ITSR","v1.0","","stimuli/reference_sequence.wav","","metronome","","5","358","0",""
"audio-multiple-response","501","3606937","0.0-482.0","28","1","ITSR","v1.0","","stimuli/sequence_1_5_358_0.wav","","tones","","5","358","0",""
"html-slider-response","502","3609185","0.0-483.0","28","1","ITSR","v1.0","2245.5","How fast was the repeating tone relative to the metronome?","","response","","5","358","0","86"
"audio-multiple-response","503","3612957","0.0-484.0","28","1","ITSR","v1.0","","stimuli/reference_sequence.wav","","metronome","","3","504","2",""
"audio-multiple-response","504","3616987","0.0-485.0","28","1","ITSR","v1.0","","stimuli/sequence_1_3_504_2.wav","","tones","","3","504","2",""
"html-slider-response","505","3620273","0.0-486.0","28","1","ITSR","v1.0","3284.5","How fast was the repeating tone relative to the metronome?","","response","","3","504","2","49"
"audio-multiple-response","506","3624037","0.0-487.0","28","1","ITSR","v1.0","","stimuli/reference_sequence.wav","","metronome","","1","1000","0",""
"audio-multiple-response","507","3630037","0.0-488.0","28","1","ITSR","v1.0","","stimuli/sequence_1_1_1000_0.wav","","tones","","1","1000","0",""
"html-slider-response","508","3631101","0.0-489.0","28","1","ITSR","v1.0","1062","How fast was the repeating tone relative to the metronome?","","response","","1","1000","0","0"
"audio-multiple-response","509","3634877","0.0-490.0","28","1","ITSR","v1.0","","stimuli/reference_sequence.wav","","metronome","","4","358","0",""
"audio-multiple-response","510","3638317","0.0-491.0","28","1","ITSR","v1.0","","stimuli/sequence_1_4_358_0.wav","","tones","","4","358","0",""
"html-slider-response","511","3641240","0.0-492.0","28","1","ITSR","v1.0","2921.5","How fast was the repeating tone relative to the metronome?","","response","","4","358","0","100"
"audio-multiple-response","512","3644997","0.0-493.0","28","1","ITSR","v1.0","","stimuli/reference_sequence.wav","","metronome","","1","550","0",""
"audio-multiple-response","513","3649197","0.0-494.0","28","1","ITSR","v1.0","","stimuli/sequence_1_1_550_0.wav","","tones","","1","550","0",""
"html-slider-response","514","3653215","0.0-495.0","28","1","ITSR","v1.0","4015.600000023842","How fast was the repeating tone relative to the metronome?","","response","","1","550","0","52"
"audio-multiple-response","515","3656957","0.0-496.0","28","1","ITSR","v1.0","","stimuli/reference_sequence.wav","","metronome","","4","918","2",""
"audio-multiple-response","516","3662637","0.0-497.0","28","1","ITSR","v1.0","","stimuli/sequence_1_4_918_2.wav","","tones","","4","918","2",""
"html-slider-response","517","3664440","0.0-498.0","28","1","ITSR","v1.0","1801.6999999284744","How fast was the repeating tone relative to the metronome?","","response","","4","918","2","16"
"audio-multiple-response","518","3668197","0.0-499.0","28","1","ITSR","v1.0","","stimuli/reference_sequence.wav","","metronome","","1","358","0",""
"audio-multiple-response","519","3671637","0.0-500.0","28","1","ITSR","v1.0","","stimuli/sequence_1_1_358_0.wav","","tones","","1","358","0",""
"html-slider-response","520","3673303","0.0-501.0","28","1","ITSR","v1.0","1664","How fast was the repeating tone relative to the metronome?","","response","","1","358","0","83"
"audio-multiple-response","521","3677077","0.0-502.0","28","1","ITSR","v1.0","","stimuli/reference_sequence.wav","","metronome","","4","504","0",""
"audio-multiple-response","522","3681097","0.0-503.0","28","1","ITSR","v1.0","","stimuli/sequence_1_4_504_0.wav","","tones","","4","504","0",""
"html-slider-response","523","3685940","0.0-504.0","28","1","ITSR","v1.0","4840.800000071526","How fast was the repeating tone relative to the metronome?","","response","","4","504","0","51"
"audio-multiple-response","524","3689697","0.0-505.0","28","1","ITSR","v1.0","","stimuli/reference_sequence.wav","","metronome","","1","425","0",""
"audio-multiple-response","525","3693407","0.0-506.0","28","1","ITSR","v1.0","","stimuli/sequence_1_1_425_0.wav","","tones","","1","425","0",""
"html-slider-response","526","3695049","0.0-507.0","28","1","ITSR","v1.0","1641.5","How fast was the repeating tone relative to the metronome?","","response","","1","425","0","65"
"audio-multiple-response","527","3698807","0.0-508.0","28","1","ITSR","v1.0","","stimuli/reference_sequence.wav","","metronome","","5","550","0",""
"audio-multiple-response","528","3703007","0.0-509.0","28","1","ITSR","v1.0","","stimuli/sequence_1_5_550_0.wav","","tones","","5","550","0",""
"html-slider-response","529","3705082","0.0-510.0","28","1","ITSR","v1.0","2073.5","How fast was the repeating tone relative to the metronome?","","response","","5","550","0","51"
"audio-multiple-response","530","3708836","0.0-511.0","28","1","ITSR","v1.0","","stimuli/reference_sequence.wav","","metronome","","0","463","0",""
"audio-multiple-response","531","3712697","0.0-512.0","28","1","ITSR","v1.0","","stimuli/sequence_1_0_463_0.wav","","tones","","0","463","0",""
"html-slider-response","532","3717853","0.0-513.0","28","1","ITSR","v1.0","5154.299999952316","How fast was the repeating tone relative to the metronome?","","response","","0","463","0","49"
"audio-multiple-response","533","3721617","0.0-514.0","28","1","ITSR","v1.0","","stimuli/reference_sequence.wav","","metronome","","2","843","2",""
"audio-multiple-response","534","3726996","0.0-515.0","28","1","ITSR","v1.0","","stimuli/sequence_1_2_843_2.wav","","tones","","2","843","2",""
"html-slider-response","535","3728292","0.0-516.0","28","1","ITSR","v1.0","1294.1000000238419","How fast was the repeating tone relative to the metronome?","","response","","2","843","2","27"
"audio-multiple-response","536","3732047","0.0-517.0","28","1","ITSR","v1.0","","stimuli/reference_sequence.wav","","metronome","","0","329","2",""
"audio-multiple-response","537","3735366","0.0-518.0","28","1","ITSR","v1.0","","stimuli/sequence_1_0_329_2.wav","","tones","","0","329","2",""
"html-slider-response","538","3736547","0.0-519.0","28","1","ITSR","v1.0","1178.5","How fast was the repeating tone relative to the metronome?","","response","","0","329","2","93"
"audio-multiple-response","539","3740317","0.0-520.0","28","1","ITSR","v1.0","","stimuli/reference_sequence.wav","","metronome","","5","390","2",""
"audio-multiple-response","540","3743876","0.0-521.0","28","1","ITSR","v1.0","","stimuli/sequence_1_5_390_2.wav","","tones","","5","390","2",""
"html-slider-response","541","3744977","0.0-522.0","28","1","ITSR","v1.0","1099.6000000238419","How fast was the repeating tone relative to the metronome?","","response","","5","390","2","91"
"audio-multiple-response","542","3748736","0.0-523.0","28","1","ITSR","v1.0","","stimuli/reference_sequence.wav","","metronome","","4","710","0",""
"audio-multiple-response","543","3753577","0.0-524.0","28","1","ITSR","v1.0","","stimuli/sequence_1_4_710_0.wav","","tones","","4","710","0",""
"html-slider-response","544","3755822","0.0-525.0","28","1","ITSR","v1.0","2242.600000023842","How fast was the repeating tone relative to the metronome?","","response","","4","710","0","42"
"audio-multiple-response","545","3759567","0.0-526.0","28","1","ITSR","v1.0","","stimuli/reference_sequence.wav","","metronome","","0","599","0",""
"audio-multiple-response","546","3763967","0.0-527.0","28","1","ITSR","v1.0","","stimuli/sequence_1_0_599_0.wav","","tones","","0","599","0",""
"html-slider-response","547","3767510","0.0-528.0","28","1","ITSR","v1.0","3541.3000000715256","How fast was the repeating tone relative to the metronome?","","response","","0","599","0","51"
"audio-multiple-response","548","3771257","0.0-529.0","28","1","ITSR","v1.0","","stimuli/reference_sequence.wav","","metronome","","2","425","1",""
"audio-multiple-response","549","3774967","0.0-530.0","28","1","ITSR","v1.0","","stimuli/sequence_1_2_425_1.wav","","tones","","2","425","1",""
"html-slider-response","550","3776334","0.0-531.0","28","1","ITSR","v1.0","1364.8000000715256","How fast was the repeating tone relative to the metronome?","","response","","2","425","1","62"
"audio-multiple-response","551","3780077","0.0-532.0","28","1","ITSR","v1.0","","stimuli/reference_sequence.wav","","metronome","","3","710","2",""
"audio-multiple-response","552","3784917","0.0-533.0","28","1","ITSR","v1.0","","stimuli/sequence_1_3_710_2.wav","","tones","","3","710","2",""
"html-slider-response","553","3786229","0.0-534.0","28","1","ITSR","v1.0","1310","How fast was the repeating tone relative to the metronome?","","response","","3","710","2","19"
"audio-multiple-response","554","3789977","0.0-535.0","28","1","ITSR","v1.0","","stimuli/reference_sequence.wav","","metronome","","2","599","2",""
"audio-multiple-response","555","3794387","0.0-536.0","28","1","ITSR","v1.0","","stimuli/sequence_1_2_599_2.wav","","tones","","2","599","2",""
"html-slider-response","556","3798996","0.0-537.0","28","1","ITSR","v1.0","4607.800000071526","How fast was the repeating tone relative to the metronome?","","response","","2","599","2","51"
"audio-multiple-response","557","3802756","0.0-538.0","28","1","ITSR","v1.0","","stimuli/reference_sequence.wav","","metronome","","0","1000","0",""
"audio-multiple-response","558","3808757","0.0-539.0","28","1","ITSR","v1.0","","stimuli/sequence_1_0_1000_0.wav","","tones","","0","1000","0",""
"html-slider-response","559","3810506","0.0-540.0","28","1","ITSR","v1.0","1747.1000000238419","How fast was the repeating tone relative to the metronome?","","response","","0","1000","0","0"
"audio-multiple-response","560","3814277","0.0-541.0","28","1","ITSR","v1.0","","stimuli/reference_sequence.wav","","metronome","","2","329","1",""
"audio-multiple-response","561","3817597","0.0-542.0","28","1","ITSR","v1.0","","stimuli/sequence_1_2_329_1.wav","","tones","","2","329","1",""
"html-slider-response","562","3819404","0.0-543.0","28","1","ITSR","v1.0","1805","How fast was the repeating tone relative to the metronome?","","response","","2","329","1","100"
"audio-multiple-response","563","3823157","0.0-544.0","28","1","ITSR","v1.0","","stimuli/reference_sequence.wav","","metronome","","1","710","2",""
"audio-multiple-response","564","3827997","0.0-545.0","28","1","ITSR","v1.0","","stimuli/sequence_1_1_710_2.wav","","tones","","1","710","2",""
"html-slider-response","565","3829618","0.0-546.0","28","1","ITSR","v1.0","1619.1999999284744","How fast was the repeating tone relative to the metronome?","","response","","1","710","2","47"
"audio-multiple-response","566","3833367","0.0-547.0","28","1","ITSR","v1.0","","stimuli/reference_sequence.wav","","metronome","","3","329","1",""
"audio-multiple-response","567","3836697","0.0-548.0","28","1","ITSR","v1.0","","stimuli/sequence_1_3_329_1.wav","","tones","","3","329","1",""
"html-slider-response","568","3838128","0.0-549.0","28","1","ITSR","v1.0","1428.6999999284744","How fast was the repeating tone relative to the metronome?","","response","","3","329","1","100"
"audio-multiple-response","569","3841877","0.0-550.0","28","1","ITSR","v1.0","","stimuli/reference_sequence.wav","","metronome","","5","774","1",""
"audio-multiple-response","570","3846987","0.0-551.0","28","1","ITSR","v1.0","","stimuli/sequence_1_5_774_1.wav","","tones","","5","774","1",""
"html-slider-response","571","3849194","0.0-552.0","28","1","ITSR","v1.0","2204.399999976158","How fast was the repeating tone relative to the metronome?","","response","","5","774","1","23"
"html-button-response","572","3854180","0.0-553.0","28","1","ITSR","v1.0","3473.600000023842","<h3>You have completed section 6 of 6!</h3><p>Thank you for participating! When you are ready, press the button below to submit your data and complete the study.</p><p>You will receive credit on SONA once we verify that you have completed our study, which will likely occur within the next 24 hours.</p><p>If you have any questions about the study or would like to learn more about our lab's work, please contact Jesse Pazdera at pazderaj@mcmaster.ca.</p><p><em>Have a great day!</em></p>","","ending","0","","","",""
