subject,range,pitch,ioi,tempo,loudness,true_score,response,rt,error,block,trial,test_correct,test_incorrect,test_skipped,extreme_responses,pearsonr,intercept,slope,residual,illusory_tempo,cooks
1,0,4,918,65.359477124183,1,13.046873249910696,0,4321.299999952316,-13.046873249910696,0,1,6,0,0,81.0,0.9003488729557851,54.5426333939452,65.33949053508695,-6.252663883358629,-6.417869446707277,0.0025705043127452216
1,0,3,652,92.02453987730061,1,37.727982709047225,24,3346.100000023842,-13.727982709047225,0,2,6,0,0,81.0,0.9003488729557851,54.5426333939452,65.33949053508695,-14.505686241372551,-14.262686790445608,0.003251414787265762
1,0,2,1000,60.0,0,6.875176187496734,0,2802.6999999284744,-6.875176187496734,0,3,6,0,0,81.0,0.9003488729557851,54.5426333939452,65.33949053508695,1.8124469525417908,1.9413186855040483,6.208188297336336e-05
1,0,1,652,92.02453987730061,1,37.727982709047225,43,3357.5,5.272017290952775,0,4,6,0,0,81.0,0.9003488729557851,54.5426333939452,65.33949053508695,4.494313758627449,4.883230981024483,0.000134057880231607
1,0,2,504,119.04761904761905,0,56.30039424560527,55,3507.2999999523163,-1.3003942456052684,0,5,6,0,0,81.0,0.9003488729557851,54.5426333939452,65.33949053508695,-7.7759243975060315,-7.91794314673097,0.0007228648170064051
1,0,1,1000,60.0,0,6.875176187496734,8,3862.3000000715256,1.1248238125032657,0,6,6,0,0,81.0,0.9003488729557851,54.5426333939452,65.33949053508695,9.81244695254179,10.970511911819544,0.0018232919551404386
1,0,2,652,92.02453987730061,0,37.727982709047225,44,2740.399999976158,6.272017290952775,0,7,6,0,0,81.0,0.9003488729557851,54.5426333939452,65.33949053508695,5.494313758627449,6.001796416205956,0.00023070078375747312
1,0,5,1000,60.0,1,6.875176187496734,0,3268.5,-6.875176187496734,0,8,6,0,0,81.0,0.9003488729557851,54.5426333939452,65.33949053508695,1.8124469525417908,1.9413186855040483,6.208188297336336e-05
1,0,0,599,100.1669449081803,1,43.84378078116181,49,8441.300000071526,5.156219218838189,0,9,6,0,0,81.0,0.9003488729557851,54.5426333939452,65.33949053508695,2.502251153678756,2.690032403293601,2.771104997848851e-05
1,0,3,390,153.84615384615384,1,74.79787473312055,80,4266.0,5.202125266879449,0,10,6,0,0,81.0,0.9003488729557851,54.5426333939452,65.33949053508695,-6.948243422245241,-7.105868916266587,0.0007503093058132661
1,0,0,843,71.17437722419929,2,19.194949373496982,34,12750.0,14.805050626503018,0,11,6,0,0,81.0,0.9003488729557851,54.5426333939452,65.33949053508695,19.713092882920165,23.259819212510006,0.007670238791326844
1,0,4,710,84.50704225352112,0,31.580629700998873,41,3886.899999976158,9.419370299001127,0,12,6,0,0,81.0,0.9003488729557851,54.5426333939452,65.33949053508695,10.527612032331714,11.815619675549746,0.0012593289985379883
1,0,0,425,141.1764705882353,2,68.5984388693479,70,2248.100000023842,1.401561130652098,0,13,6,0,0,81.0,0.9003488729557851,54.5426333939452,65.33949053508695,-8.8468838033682,-8.958181900228581,0.0011165842115057815
1,0,2,302,198.67549668874173,1,93.24415345434716,100,2378.200000047684,6.755846545652844,0,14,6,0,0,81.0,0.9003488729557851,54.5426333939452,65.33949053508695,-11.053652500508463,-11.064742195587032,0.003347495025198003
1,0,0,710,84.50704225352112,1,31.580629700998873,26,2782.3000000715256,-5.580629700998873,0,15,6,0,0,81.0,0.9003488729557851,54.5426333939452,65.33949053508695,-4.472387967668286,-4.633694522265407,0.0005957728653959202
1,0,4,463,129.58963282937364,1,62.42097125758927,74,2653.399999976158,11.579028742410728,0,16,6,0,0,81.0,0.9003488729557851,54.5426333939452,65.33949053508695,3.225767927617966,3.481247125997475,0.00014686002879670275
1,0,0,302,198.67549668874173,0,93.24415345434716,100,4091.700000047684,6.755846545652844,0,17,6,0,0,81.0,0.9003488729557851,54.5426333939452,65.33949053508695,-11.053652500508463,-11.064742195587032,0.003347495025198003
1,0,5,463,129.58963282937364,0,62.42097125758927,78,4042.0,15.579028742410728,0,18,6,0,0,81.0,0.9003488729557851,54.5426333939452,65.33949053508695,7.225767927617966,7.966823759513998,0.0007055984361851794
1,0,1,504,119.04761904761905,1,56.30039424560527,100,3367.1999999284744,43.69960575439473,0,19,6,0,0,81.0,0.9003488729557851,54.5426333939452,65.33949053508695,37.22407560249397,48.421754746437536,0.015475845321602445
1,0,5,302,198.67549668874173,2,93.24415345434716,100,2611.600000023842,6.755846545652844,0,20,6,0,0,81.0,0.9003488729557851,54.5426333939452,65.33949053508695,-11.053652500508463,-11.064742195587032,0.003347495025198003
1,0,1,425,141.1764705882353,0,68.5984388693479,81,2438.5,12.401561130652098,0,21,6,0,0,81.0,0.9003488729557851,54.5426333939452,65.33949053508695,2.1531161966317995,2.3103964553857326,0.00011111464921802552
1,0,5,599,100.1669449081803,2,43.84378078116181,50,4646.0,6.156219218838189,0,22,6,0,0,81.0,0.9003488729557851,54.5426333939452,65.33949053508695,3.502251153678756,3.7852076730635726,7.440583106130874e-05
1,0,2,463,129.58963282937364,0,62.42097125758927,58,4367.0,-4.420971257589272,0,23,6,0,0,81.0,0.9003488729557851,54.5426333939452,65.33949053508695,-12.774232072382034,-12.673315944907907,0.002084790106703547
1,0,3,599,100.1669449081803,1,43.84378078116181,50,4134.5,6.156219218838189,0,24,6,0,0,81.0,0.9003488729557851,54.5426333939452,65.33949053508695,3.502251153678756,3.7852076730635726,7.440583106130874e-05
1,0,4,358,167.5977653631285,2,80.97360155738828,100,4923.899999976158,19.026398442611722,0,25,6,0,0,81.0,0.9003488729557851,54.5426333939452,65.33949053508695,4.981379690124271,5.426563887350472,0.00097195576626229
1,0,3,918,65.359477124183,1,13.046873249910696,33,3043.5,19.953126750089304,0,26,6,0,0,81.0,0.9003488729557851,54.5426333939452,65.33949053508695,26.74733611664137,32.809598936702564,0.01852104587869672
1,0,1,329,182.370820668693,2,87.06720173383901,100,2953.5,12.932798266160987,0,27,6,0,0,81.0,0.9003488729557851,54.5426333939452,65.33949053508695,-2.9816749309518684,-3.1135767627421527,6.60722810670958e-05
1,0,5,652,92.02453987730061,1,37.727982709047225,54,6807.0,16.272017290952775,0,28,6,0,0,81.0,0.9003488729557851,54.5426333939452,65.33949053508695,15.494313758627449,17.865011564585092,0.002631058577286706
1,0,3,302,198.67549668874173,0,93.24415345434716,100,2294.599999904633,6.755846545652844,0,29,6,0,0,81.0,0.9003488729557851,54.5426333939452,65.33949053508695,-11.053652500508463,-11.064742195587032,0.003347495025198003
1,0,4,599,100.1669449081803,2,43.84378078116181,48,6816.799999952316,4.156219218838189,0,30,6,0,0,81.0,0.9003488729557851,54.5426333939452,65.33949053508695,1.5022511536787562,1.6064137791998991,3.6190334784302344e-06
1,0,4,1000,60.0,0,6.875176187496734,1,3176.399999976158,-5.875176187496734,1,31,6,0,0,81.0,0.9003488729557851,54.5426333939452,65.33949053508695,2.812446952541791,3.0285090250069757,2.4236329470243913e-06
1,0,3,425,141.1764705882353,2,68.5984388693479,100,2855.5,31.401561130652098,1,32,6,0,0,81.0,0.9003488729557851,54.5426333939452,65.33949053508695,21.1531161966318,25.1572336651507,0.007476338525057557
1,0,4,774,77.51937984496124,1,25.354902613380577,42,3893.5,16.645097386619423,1,33,6,0,0,81.0,0.9003488729557851,54.5426333939452,65.33949053508695,19.663328754641114,23.194765361052635,0.0062732746154223395
1,0,0,329,182.370820668693,1,87.06720173383901,100,2320.600000023842,12.932798266160987,1,34,6,0,0,81.0,0.9003488729557851,54.5426333939452,65.33949053508695,-2.9816749309518684,-3.1135767627421527,6.60722810670958e-05
1,0,3,843,71.17437722419929,2,19.194949373496982,0,3829.0,-19.194949373496982,1,35,6,0,0,81.0,0.9003488729557851,54.5426333939452,65.33949053508695,-14.286907117079835,-14.06346834812009,0.007044418032772647
1,0,4,329,182.370820668693,1,87.06720173383901,100,2868.600000023842,12.932798266160987,1,36,6,0,0,81.0,0.9003488729557851,54.5426333939452,65.33949053508695,-2.9816749309518684,-3.1135767627421527,6.60722810670958e-05
1,0,1,710,84.50704225352112,0,31.580629700998873,28,2198.899999976158,-3.5806297009988732,1,37,6,0,0,81.0,0.9003488729557851,54.5426333939452,65.33949053508695,-2.4723879676682863,-2.5887101917805313,0.0002696950334888528
1,0,5,329,182.370820668693,1,87.06720173383901,100,2547.899999976158,12.932798266160987,1,38,6,0,0,81.0,0.9003488729557851,54.5426333939452,65.33949053508695,-2.9816749309518684,-3.1135767627421527,6.60722810670958e-05
1,0,3,774,77.51937984496124,0,25.354902613380577,14,4001.899999976158,-11.354902613380577,1,39,6,0,0,81.0,0.9003488729557851,54.5426333939452,65.33949053508695,-8.336671245358886,-8.464078741229594,0.0021469188322534925
1,0,1,358,167.5977653631285,1,80.97360155738828,100,2520.899999976158,19.026398442611722,1,40,6,0,0,81.0,0.9003488729557851,54.5426333939452,65.33949053508695,4.981379690124271,5.426563887350472,0.00097195576626229
1,0,5,843,71.17437722419929,0,19.194949373496982,0,2421.0,-19.194949373496982,1,41,6,0,0,81.0,0.9003488729557851,54.5426333939452,65.33949053508695,-14.286907117079835,-14.06346834812009,0.007044418032772647
1,0,0,504,119.04761904761905,2,56.30039424560527,50,5097.5,-6.300394245605268,1,42,6,0,0,81.0,0.9003488729557851,54.5426333939452,65.33949053508695,-12.775924397506031,-12.674883694116797,0.0019093346394508373
1,0,2,774,77.51937984496124,1,25.354902613380577,50,3989.3000000715256,24.645097386619423,1,43,6,0,0,81.0,0.9003488729557851,54.5426333939452,65.33949053508695,27.663328754641114,34.10642861260636,0.013241623303326053
1,0,4,504,119.04761904761905,0,56.30039424560527,73,1889.8000000715256,16.69960575439473,1,44,6,0,0,81.0,0.9003488729557851,54.5426333939452,65.33949053508695,10.224075602493969,11.456148576203299,0.0011309158950201014
1,0,0,463,129.58963282937364,0,62.42097125758927,52,3198.0,-10.420971257589272,1,45,6,0,0,81.0,0.9003488729557851,54.5426333939452,65.33949053508695,-18.774232072382034,-18.05848998167439,0.004532828415246175
1,0,1,843,71.17437722419929,1,19.194949373496982,0,2826.600000023842,-19.194949373496982,1,46,6,0,0,81.0,0.9003488729557851,54.5426333939452,65.33949053508695,-14.286907117079835,-14.06346834812009,0.007044418032772647
1,0,5,710,84.50704225352112,2,31.580629700998873,25,4598.200000047684,-6.580629700998873,1,47,6,0,0,81.0,0.9003488729557851,54.5426333939452,65.33949053508695,-5.472387967668286,-5.6400307976386,0.0008066447024639938
1,0,0,918,65.359477124183,0,13.046873249910696,0,2706.0,-13.046873249910696,1,48,6,0,0,81.0,0.9003488729557851,54.5426333939452,65.33949053508695,-6.252663883358629,-6.417869446707277,0.002570504312745222
1,0,1,599,100.1669449081803,0,43.84378078116181,49,4359.400000095367,5.156219218838189,1,49,6,0,0,81.0,0.9003488729557851,54.5426333939452,65.33949053508695,2.502251153678756,2.690032403293601,2.771104997848851e-05
1,0,2,425,141.1764705882353,1,68.5984388693479,100,2335.0,31.401561130652098,1,50,6,0,0,81.0,0.9003488729557851,54.5426333939452,65.33949053508695,21.1531161966318,25.1572336651507,0.007476338525057557
1,0,3,550,109.0909090909091,0,50.0,50,3850.1999999284735,0.0,1,51,6,0,0,81.0,0.9003488729557851,54.5426333939452,65.33949053508695,-4.542633393945202,-4.704734190008411,0.000281394610984939
1,0,2,918,65.359477124183,1,13.046873249910696,23,1851.0,9.953126750089304,1,52,6,0,0,81.0,0.9003488729557851,54.5426333939452,65.33949053508695,16.74733611664137,19.442198169998232,0.006318398614581632
1,0,0,652,92.02453987730061,0,37.727982709047225,46,1762.100000023842,8.272017290952775,1,53,6,0,0,81.0,0.9003488729557851,54.5426333939452,65.33949053508695,7.494313758627449,8.274842557486938,0.000502200886714873
1,0,2,329,182.370820668693,2,87.06720173383901,100,3474.100000023842,12.932798266160987,1,54,6,0,0,81.0,0.9003488729557851,54.5426333939452,65.33949053508695,-2.9816749309518684,-3.1135767627421527,6.60722810670958e-05
1,0,1,463,129.58963282937364,1,62.42097125758927,100,4401.900000095367,37.57902874241073,1,55,6,0,0,81.0,0.9003488729557851,54.5426333939452,65.33949053508695,29.225767927617966,36.34776279285831,0.011237689303907894
1,0,3,358,167.5977653631285,1,80.97360155738828,100,2340.0,19.026398442611722,1,56,6,0,0,81.0,0.9003488729557851,54.5426333939452,65.33949053508695,4.981379690124271,5.426563887350472,0.00097195576626229
1,0,5,550,109.0909090909091,0,50.0,52,4086.100000023842,2.0,1,57,6,0,0,81.0,0.9003488729557851,54.5426333939452,65.33949053508695,-2.542633393945202,-2.6612731963734766,0.00010463826783436822
1,0,4,390,153.84615384615384,2,74.79787473312055,100,5485.299999952316,25.20212526687945,1,58,6,0,0,81.0,0.9003488729557851,54.5426333939452,65.33949053508695,13.051756577754759,14.850167363314773,0.003882034785890203
1,0,2,599,100.1669449081803,2,43.84378078116181,49,5868.399999976158,5.156219218838189,1,59,6,0,0,81.0,0.9003488729557851,54.5426333939452,65.33949053508695,2.502251153678756,2.690032403293601,2.771104997848851e-05
1,0,5,425,141.1764705882353,2,68.5984388693479,100,1954.700000047684,31.401561130652098,1,60,6,0,0,81.0,0.9003488729557851,54.5426333939452,65.33949053508695,21.1531161966318,25.1572336651507,0.007476338525057557
1,0,0,390,153.84615384615384,1,74.79787473312055,100,2109.399999976158,25.20212526687945,2,61,6,0,0,81.0,0.9003488729557851,54.5426333939452,65.33949053508695,13.051756577754759,14.850167363314773,0.003882034785890203
1,0,4,302,198.67549668874173,0,93.24415345434716,100,1891.6000000238416,6.755846545652844,2,62,6,0,0,81.0,0.9003488729557851,54.5426333939452,65.33949053508695,-11.053652500508463,-11.064742195587032,0.003347495025198003
1,0,5,918,65.359477124183,2,13.046873249910696,0,2154.200000047684,-13.046873249910696,2,63,6,0,0,81.0,0.9003488729557851,54.5426333939452,65.33949053508695,-6.252663883358629,-6.417869446707277,0.002570504312745222
1,0,4,425,141.1764705882353,0,68.5984388693479,100,2125.5,31.401561130652098,2,64,6,0,0,81.0,0.9003488729557851,54.5426333939452,65.33949053508695,21.1531161966318,25.1572336651507,0.007476338525057557
1,0,3,329,182.370820668693,2,87.06720173383901,100,1775.5999999046326,12.932798266160987,2,65,6,0,0,81.0,0.9003488729557851,54.5426333939452,65.33949053508695,-2.9816749309518684,-3.1135767627421527,6.60722810670958e-05
1,0,4,843,71.17437722419929,2,19.194949373496982,15,4969.100000023842,-4.194949373496982,2,66,6,0,0,81.0,0.9003488729557851,54.5426333939452,65.33949053508695,0.713092882920165,0.7593456754586618,6.830103882914721e-05
1,0,1,390,153.84615384615384,2,74.79787473312055,90,2880.399999976158,15.202125266879449,2,67,6,0,0,81.0,0.9003488729557851,54.5426333939452,65.33949053508695,3.051756577754759,3.2903988860362805,0.00030475038770602165
1,0,5,358,167.5977653631285,0,80.97360155738828,100,2917.600000023842,19.026398442611722,2,68,6,0,0,81.0,0.9003488729557851,54.5426333939452,65.33949053508695,4.981379690124271,5.426563887350472,0.00097195576626229
1,0,3,504,119.04761904761905,2,56.30039424560527,48,5643.0,-8.300394245605268,2,69,6,0,0,81.0,0.9003488729557851,54.5426333939452,65.33949053508695,-14.775924397506031,-14.508125968753344,0.002542161201625207
1,0,5,390,153.84615384615384,1,74.79787473312055,90,4473.300000071526,15.202125266879449,2,70,6,0,0,81.0,0.9003488729557851,54.5426333939452,65.33949053508695,3.051756577754759,3.2903988860362805,0.00030475038770602165
1,0,1,918,65.359477124183,2,13.046873249910696,12,7060.700000047684,-1.0468732499106963,2,71,6,0,0,81.0,0.9003488729557851,54.5426333939452,65.33949053508695,5.747336116641371,6.286704538103632,0.000296676225767993
1,0,5,774,77.51937984496124,0,25.354902613380577,7,4645.799999952316,-18.354902613380577,2,72,6,0,0,81.0,0.9003488729557851,54.5426333939452,65.33949053508695,-15.336671245358886,-15.015175409702014,0.0060403317049147216
1,0,4,550,109.0909090909091,1,50.0,51,2364.2999999523163,1.0,2,73,6,0,0,81.0,0.9003488729557851,54.5426333939452,65.33949053508695,-3.542633393945202,-3.6884231031505643,0.00018230542926229125
1,0,0,774,77.51937984496124,2,25.354902613380577,0,3968.600000023842,-25.354902613380577,2,74,6,0,0,81.0,0.9003488729557851,54.5426333939452,65.33949053508695,-22.336671245358886,-21.09741933741986,0.011903745304957322
1,0,5,504,119.04761904761905,1,56.30039424560527,50,4378.200000047684,-6.300394245605268,2,75,6,0,0,81.0,0.9003488729557851,54.5426333939452,65.33949053508695,-12.775924397506031,-12.674883694116797,0.0019093346394508373
1,0,4,652,92.02453987730061,2,37.727982709047225,0,3010.2999999523163,-37.727982709047225,2,76,6,0,0,81.0,0.9003488729557851,54.5426333939452,65.33949053508695,-38.50568624137255,-33.534260217051354,0.020641987670873198
1,0,0,550,109.0909090909091,0,50.0,47,3811.0,-3.0,2,77,6,0,0,81.0,0.9003488729557851,54.5426333939452,65.33949053508695,-7.542633393945202,-7.6897722567378475,0.00070719427792123
1,0,2,358,167.5977653631285,0,80.97360155738828,100,1575.8000000715256,19.026398442611722,2,78,6,0,0,81.0,0.9003488729557851,54.5426333939452,65.33949053508695,4.981379690124271,5.426563887350472,0.00097195576626229
1,0,1,550,109.0909090909091,2,50.0,48,2463.0,-2.0,2,79,6,0,0,81.0,0.9003488729557851,54.5426333939452,65.33949053508695,-6.542633393945202,-6.705296196060197,0.0005438390353144084
1,0,2,710,84.50704225352112,2,31.580629700998873,1,2336.5,-30.580629700998873,2,80,6,0,0,81.0,0.9003488729557851,54.5426333939452,65.33949053508695,-29.472387967668286,-26.849758592245045,0.015434153015005678
1,0,0,358,167.5977653631285,2,80.97360155738828,100,1444.5,19.026398442611722,2,81,6,0,0,81.0,0.9003488729557851,54.5426333939452,65.33949053508695,4.981379690124271,5.426563887350472,0.00097195576626229
1,0,2,550,109.0909090909091,1,50.0,47,2941.899999976158,-3.0,2,82,6,0,0,81.0,0.9003488729557851,54.5426333939452,65.33949053508695,-7.542633393945202,-7.6897722567378475,0.00070719427792123
1,0,3,710,84.50704225352112,2,31.580629700998873,6,1447.600000023842,-25.580629700998873,2,83,6,0,0,81.0,0.9003488729557851,54.5426333939452,65.33949053508695,-24.472387967668286,-22.86497890772985,0.01087204628126574
1,0,2,843,71.17437722419929,2,19.194949373496982,47,3420.899999976158,27.805050626503018,2,84,6,0,0,81.0,0.9003488729557851,54.5426333939452,65.33949053508695,32.713092882920165,41.48640361376363,0.023457252990994003
1,0,1,774,77.51937984496124,2,25.354902613380577,22,5620.299999952316,-3.3549026133805775,2,85,6,0,0,81.0,0.9003488729557851,54.5426333939452,65.33949053508695,-0.33667124535888604,-0.35651714744607915,0.00010954990927091731
1,0,0,1000,60.0,1,6.875176187496734,21,2281.7999999523163,14.124823812503266,2,86,6,0,0,81.0,0.9003488729557851,54.5426333939452,65.33949053508695,22.81244695254179,27.379860995189084,0.015597829175253649
1,0,2,390,153.84615384615384,2,74.79787473312055,100,1718.100000023842,25.20212526687945,2,87,6,0,0,81.0,0.9003488729557851,54.5426333939452,65.33949053508695,13.051756577754759,14.850167363314773,0.003882034785890203
1,0,3,1000,60.0,0,6.875176187496734,0,2622.0,-6.875176187496734,2,88,6,0,0,81.0,0.9003488729557851,54.5426333939452,65.33949053508695,1.8124469525417908,1.9413186855040483,6.208188297336336e-05
1,0,1,302,198.67549668874173,0,93.24415345434716,99,3104.200000047684,5.755846545652844,2,89,6,0,0,81.0,0.9003488729557851,54.5426333939452,65.33949053508695,-12.053652500508463,-12.003215964072721,0.004118816105367282
1,0,3,463,129.58963282937364,0,62.42097125758927,57,8136.0,-5.420971257589272,2,90,6,0,0,81.0,0.9003488729557851,54.5426333939452,65.33949053508695,-13.774232072382034,-13.59481551996706,0.0024275951835315774
1,0,4,652,92.02453987730061,1,37.727982709047225,46,1973.0,8.272017290952775,3,91,6,0,0,81.0,0.9003488729557851,54.5426333939452,65.33949053508695,7.494313758627449,8.274842557486938,0.000502200886714873
1,0,2,1000,60.0,1,6.875176187496734,0,2719.2999999523163,-6.875176187496734,3,92,6,0,0,81.0,0.9003488729557851,54.5426333939452,65.33949053508695,1.8124469525417908,1.9413186855040483,6.208188297336336e-05
1,0,5,652,92.02453987730061,0,37.727982709047225,45,3469.5,7.272017290952775,3,93,6,0,0,81.0,0.9003488729557851,54.5426333939452,65.33949053508695,6.494313758627449,7.132291200064804,0.0003534151192518952
1,0,2,599,100.1669449081803,0,43.84378078116181,46,2224.700000047684,2.1562192188381886,3,94,6,0,0,81.0,0.9003488729557851,54.5426333939452,65.33949053508695,-0.49774884632124383,-0.5266400430449754,2.3243294226599625e-05
1,0,1,843,71.17437722419929,1,19.194949373496982,0,3843.1999999284735,-19.194949373496982,3,95,6,0,0,81.0,0.9003488729557851,54.5426333939452,65.33949053508695,-14.286907117079835,-14.06346834812009,0.007044418032772647
1,0,4,302,198.67549668874173,2,93.24415345434716,100,1922.399999976158,6.755846545652844,3,96,6,0,0,81.0,0.9003488729557851,54.5426333939452,65.33949053508695,-11.053652500508463,-11.064742195587032,0.003347495025198003
1,0,3,390,153.84615384615384,0,74.79787473312055,100,1724.7999999523165,25.20212526687945,3,97,6,0,0,81.0,0.9003488729557851,54.5426333939452,65.33949053508695,13.051756577754759,14.850167363314773,0.003882034785890203
1,0,4,550,109.0909090909091,2,50.0,47,16972.699999928474,-3.0,3,98,6,0,0,81.0,0.9003488729557851,54.5426333939452,65.33949053508695,-7.542633393945202,-7.6897722567378475,0.00070719427792123
1,0,2,390,153.84615384615384,1,74.79787473312055,47,9374.700000047684,-27.79787473312055,3,99,6,0,0,81.0,0.9003488729557851,54.5426333939452,65.33949053508695,-39.94824342224524,-34.54365669114138,0.030762727064654837
1,0,1,652,92.02453987730061,0,37.727982709047225,7,4678.200000047684,-30.727982709047225,3,100,6,0,0,81.0,0.9003488729557851,54.5426333939452,65.33949053508695,-31.50568624137255,-28.41071623659653,0.014018487044358627
1,0,5,390,153.84615384615384,0,74.79787473312055,100,3724.299999952316,25.20212526687945,3,101,6,0,0,81.0,0.9003488729557851,54.5426333939452,65.33949053508695,13.051756577754759,14.850167363314773,0.003882034785890203
1,0,2,302,198.67549668874173,0,93.24415345434716,100,5367.600000023842,6.755846545652844,3,102,6,0,0,81.0,0.9003488729557851,54.5426333939452,65.33949053508695,-11.053652500508463,-11.064742195587032,0.003347495025198003
1,0,1,463,129.58963282937364,1,62.42097125758927,53,3596.399999976158,-9.420971257589272,3,103,6,0,0,81.0,0.9003488729557851,54.5426333939452,65.33949053508695,-17.774232072382034,-17.184594889429775,0.004059620722559994
1,0,0,302,198.67549668874173,0,93.24415345434716,100,2829.200000047684,6.755846545652844,3,104,6,0,0,81.0,0.9003488729557851,54.5426333939452,65.33949053508695,-11.053652500508463,-11.064742195587032,0.003347495025198003
1,0,4,425,141.1764705882353,2,68.5984388693479,65,2763.2999999523163,-3.598438869347902,3,105,6,0,0,81.0,0.9003488729557851,54.5426333939452,65.33949053508695,-13.8468838033682,-13.661383922709826,0.0028510816593425095
1,0,1,599,100.1669449081803,1,43.84378078116181,0,3450.6999999284744,-43.84378078116181,3,106,6,0,0,81.0,0.9003488729557851,54.5426333939452,65.33949053508695,-46.497748846321244,-38.93715010738307,0.02542805339080371
1,0,0,652,92.02453987730061,2,37.727982709047225,37,2423.3000000715256,-0.7279827090472253,3,107,6,0,0,81.0,0.9003488729557851,54.5426333939452,65.33949053508695,-1.5056862413725511,-1.5846025166366433,0.00010170053041608314
1,0,3,843,71.17437722419929,2,19.194949373496982,2,2535.3000000715256,-17.194949373496982,3,108,6,0,0,81.0,0.9003488729557851,54.5426333939452,65.33949053508695,-12.286907117079835,-12.220691071974672,0.005452663577183671
1,0,0,550,109.0909090909091,1,50.0,48,3601.600000023842,-2.0,3,109,6,0,0,81.0,0.9003488729557851,54.5426333939452,65.33949053508695,-6.542633393945202,-6.705296196060197,0.0005438390353144084
1,0,4,1000,60.0,2,6.875176187496734,0,1726.600000023842,-6.875176187496734,3,110,6,0,0,81.0,0.9003488729557851,54.5426333939452,65.33949053508695,1.8124469525417908,1.9413186855040483,6.208188297336336e-05
1,0,0,390,153.84615384615384,2,74.79787473312055,100,2691.100000023842,25.20212526687945,3,111,6,0,0,81.0,0.9003488729557851,54.5426333939452,65.33949053508695,13.051756577754759,14.850167363314773,0.003882034785890203
1,0,5,550,109.0909090909091,0,50.0,100,3569.5,50.0,3,112,6,0,0,81.0,0.9003488729557851,54.5426333939452,65.33949053508695,45.4573666060548,61.96818474313621,0.021568910385890237
1,0,1,302,198.67549668874173,0,93.24415345434716,100,2515.0,6.755846545652844,3,113,6,0,0,81.0,0.9003488729557851,54.5426333939452,65.33949053508695,-11.053652500508463,-11.064742195587032,0.003347495025198003
1,0,2,774,77.51937984496124,0,25.354902613380577,48,2842.1999999284744,22.645097386619423,3,114,6,0,0,81.0,0.9003488729557851,54.5426333939452,65.33949053508695,25.663328754641114,31.29109226227166,0.0112583115524871
1,0,5,329,182.370820668693,0,87.06720173383901,100,1760.5,12.932798266160987,3,115,6,0,0,81.0,0.9003488729557851,54.5426333939452,65.33949053508695,-2.9816749309518684,-3.1135767627421527,6.60722810670958e-05
1,0,3,504,119.04761904761905,2,56.30039424560527,53,3189.700000047684,-3.3003942456052684,3,116,6,0,0,81.0,0.9003488729557851,54.5426333939452,65.33949053508695,-9.775924397506031,-9.85104929648512,0.001129636188899922
1,0,0,918,65.359477124183,1,13.046873249910696,48,5886.0,34.953126750089304,3,117,6,0,0,81.0,0.9003488729557851,54.5426333939452,65.33949053508695,41.74733611664137,55.71734198548499,0.04883993495946831
1,0,3,358,167.5977653631285,0,80.97360155738828,100,2756.3000000715256,19.026398442611722,3,118,6,0,0,81.0,0.9003488729557851,54.5426333939452,65.33949053508695,4.981379690124271,5.426563887350472,0.00097195576626229
1,0,5,843,71.17437722419929,1,19.194949373496982,0,3467.899999976158,-19.194949373496982,3,119,6,0,0,81.0,0.9003488729557851,54.5426333939452,65.33949053508695,-14.286907117079835,-14.06346834812009,0.007044418032772647
1,0,3,652,92.02453987730061,2,37.727982709047225,48,2150.7999999523163,10.272017290952775,3,120,6,0,0,81.0,0.9003488729557851,54.5426333939452,65.33949053508695,9.494313758627449,10.596630691215918,0.0008779867175464959
1,0,1,710,84.50704225352112,1,31.580629700998873,0,2237.2999999523163,-31.580629700998873,4,121,6,0,0,81.0,0.9003488729557851,54.5426333939452,65.33949053508695,-30.472387967668286,-27.62166373329212,0.016442240203982748
1,0,2,918,65.359477124183,2,13.046873249910696,47,3036.399999976158,33.953126750089304,4,122,6,0,0,81.0,0.9003488729557851,54.5426333939452,65.33949053508695,40.74733611664137,54.0741619423903,0.04637011874185851
1,0,0,463,129.58963282937364,1,62.42097125758927,100,1433.2000000476835,37.57902874241073,4,123,6,0,0,81.0,0.9003488729557851,54.5426333939452,65.33949053508695,29.225767927617966,36.34776279285831,0.011237689303907894
1,0,3,302,198.67549668874173,1,93.24415345434716,100,1573.2000000476835,6.755846545652844,4,124,6,0,0,81.0,0.9003488729557851,54.5426333939452,65.33949053508695,-11.053652500508463,-11.064742195587032,0.003347495025198003
1,0,2,463,129.58963282937364,0,62.42097125758927,92,2492.0,29.579028742410728,4,125,6,0,0,81.0,0.9003488729557851,54.5426333939452,65.33949053508695,21.225767927617966,25.253731819919963,0.005947328781670189
1,0,4,329,182.370820668693,0,87.06720173383901,99,2388.5,11.932798266160987,4,126,6,0,0,81.0,0.9003488729557851,54.5426333939452,65.33949053508695,-3.9816749309518684,-4.135953815165307,0.0001900670140633172
1,0,5,918,65.359477124183,2,13.046873249910696,0,2567.600000023842,-13.046873249910696,4,127,6,0,0,81.0,0.9003488729557851,54.5426333939452,65.33949053508695,-6.252663883358629,-6.417869446707277,0.002570504312745222
1,0,4,710,84.50704225352112,2,31.580629700998873,3,2615.399999976158,-28.580629700998873,4,128,6,0,0,81.0,0.9003488729557851,54.5426333939452,65.33949053508695,-27.472387967668286,-25.281163723222157,0.013513644479280622
1,0,0,843,71.17437722419929,2,19.194949373496982,48,3905.200000047684,28.805050626503018,4,129,6,0,0,81.0,0.9003488729557851,54.5426333939452,65.33949053508695,33.713092882920165,42.99533692131137,0.02502788782646396
1,0,4,599,100.1669449081803,1,43.84378078116181,47,4912.600000023842,3.1562192188381886,4,130,6,0,0,81.0,0.9003488729557851,54.5426333939452,65.33949053508695,0.5022511536787562,0.53422985129824,2.129781561133938e-06
1,0,3,918,65.359477124183,0,13.046873249910696,48,3801.3000000715256,34.953126750089304,4,131,6,0,0,81.0,0.9003488729557851,54.5426333939452,65.33949053508695,41.74733611664137,55.71734198548499,0.04883993495946831
1,0,5,599,100.1669449081803,1,43.84378078116181,48,3809.400000095368,4.156219218838189,4,132,6,0,0,81.0,0.9003488729557851,54.5426333939452,65.33949053508695,1.5022511536787562,1.6064137791998991,3.6190334784302344e-06
1,0,4,918,65.359477124183,0,13.046873249910696,0,2898.899999976158,-13.046873249910696,4,133,6,0,0,81.0,0.9003488729557851,54.5426333939452,65.33949053508695,-6.252663883358629,-6.417869446707277,0.002570504312745222
1,0,1,504,119.04761904761905,0,56.30039424560527,54,4232.400000095367,-2.3003942456052684,4,134,6,0,0,81.0,0.9003488729557851,54.5426333939452,65.33949053508695,-8.775924397506031,-8.88962296234527,0.000914947743439121
1,0,0,358,167.5977653631285,1,80.97360155738828,99,8449.699999928474,18.026398442611722,4,135,6,0,0,81.0,0.9003488729557851,54.5426333939452,65.33949053508695,3.981379690124271,4.3140684929204145,0.000682710417629814
1,0,1,1000,60.0,0,6.875176187496734,0,2334.599999904633,-6.875176187496734,4,136,6,0,0,81.0,0.9003488729557851,54.5426333939452,65.33949053508695,1.8124469525417908,1.9413186855040483,6.208188297336336e-05
1,0,5,358,167.5977653631285,1,80.97360155738828,100,2082.399999976158,19.026398442611722,4,137,6,0,0,81.0,0.9003488729557851,54.5426333939452,65.33949053508695,4.981379690124271,5.426563887350472,0.00097195576626229
1,0,2,710,84.50704225352112,2,31.580629700998873,39,7084.200000047684,7.419370299001127,4,138,6,0,0,81.0,0.9003488729557851,54.5426333939452,65.33949053508695,8.527612032331714,9.468240941625405,0.0007563028644597028
1,0,1,329,182.370820668693,2,87.06720173383901,100,1859.1999999284744,12.932798266160987,4,139,6,0,0,81.0,0.9003488729557851,54.5426333939452,65.33949053508695,-2.9816749309518684,-3.1135767627421527,6.60722810670958e-05
1,0,3,710,84.50704225352112,1,31.580629700998873,0,3671.099999904633,-31.580629700998873,4,140,6,0,0,81.0,0.9003488729557851,54.5426333939452,65.33949053508695,-30.472387967668286,-27.62166373329212,0.016442240203982748
1,0,1,425,141.1764705882353,2,68.5984388693479,100,1809.200000047684,31.401561130652098,4,141,6,0,0,81.0,0.9003488729557851,54.5426333939452,65.33949053508695,21.1531161966318,25.1572336651507,0.007476338525057557
1,0,0,599,100.1669449081803,0,43.84378078116181,48,2580.599999904633,4.156219218838189,4,142,6,0,0,81.0,0.9003488729557851,54.5426333939452,65.33949053508695,1.5022511536787562,1.6064137791998991,3.6190334784302344e-06
1,0,2,329,182.370820668693,2,87.06720173383901,100,1759.899999976158,12.932798266160987,4,143,6,0,0,81.0,0.9003488729557851,54.5426333939452,65.33949053508695,-2.9816749309518684,-3.1135767627421527,6.60722810670958e-05
1,0,0,710,84.50704225352112,1,31.580629700998873,48,2359.200000047684,16.419370299001127,4,144,6,0,0,81.0,0.9003488729557851,54.5426333939452,65.33949053508695,17.527612032331714,20.43498127417685,0.00402441181121732
1,0,3,463,129.58963282937364,1,62.42097125758927,53,8297.599999904633,-9.420971257589272,4,145,6,0,0,81.0,0.9003488729557851,54.5426333939452,65.33949053508695,-17.774232072382034,-17.184594889429775,0.004059620722559994
1,0,5,774,77.51937984496124,2,25.354902613380577,53,3465.399999976158,27.645097386619423,4,146,6,0,0,81.0,0.9003488729557851,54.5426333939452,65.33949053508695,30.663328754641114,38.44303143754072,0.016518121653163267
1,0,3,599,100.1669449081803,0,43.84378078116181,46,2750.2999999523163,2.1562192188381886,4,147,6,0,0,81.0,0.9003488729557851,54.5426333939452,65.33949053508695,-0.49774884632124383,-0.5266400430449754,2.3243294226599625e-05
1,0,5,463,129.58963282937364,1,62.42097125758927,94,6232.199999928474,31.579028742410728,4,148,6,0,0,81.0,0.9003488729557851,54.5426333939452,65.33949053508695,23.225767927617966,27.939606224127594,0.007113435773199837
1,0,2,550,109.0909090909091,1,50.0,46,5175.5,-4.0,4,149,6,0,0,81.0,0.9003488729557851,54.5426333939452,65.33949053508695,-8.542633393945202,-8.6638598058009,0.0008919715408227764
1,0,4,463,129.58963282937364,1,62.42097125758927,58,3634.600000023842,-4.420971257589272,4,150,6,0,0,81.0,0.9003488729557851,54.5426333939452,65.33949053508695,-12.774232072382034,-12.673315944907907,0.002084790106703547
1,0,2,358,167.5977653631285,1,80.97360155738828,100,1736.600000023842,19.026398442611722,5,151,6,0,0,81.0,0.9003488729557851,54.5426333939452,65.33949053508695,4.981379690124271,5.426563887350472,0.00097195576626229
1,0,0,425,141.1764705882353,0,68.5984388693479,100,2353.2999999523163,31.401561130652098,5,152,6,0,0,81.0,0.9003488729557851,54.5426333939452,65.33949053508695,21.1531161966318,25.1572336651507,0.007476338525057557
1,0,5,710,84.50704225352112,1,31.580629700998873,48,1909.399999976158,16.419370299001127,5,153,6,0,0,81.0,0.9003488729557851,54.5426333939452,65.33949053508695,17.527612032331714,20.43498127417685,0.00402441181121732
1,0,3,550,109.0909090909091,1,50.0,47,2298.8000000715256,-3.0,5,154,6,0,0,81.0,0.9003488729557851,54.5426333939452,65.33949053508695,-7.542633393945202,-7.6897722567378475,0.00070719427792123
1,0,1,774,77.51937984496124,2,25.354902613380577,0,2596.3000000715256,-25.354902613380577,5,155,6,0,0,81.0,0.9003488729557851,54.5426333939452,65.33949053508695,-22.336671245358886,-21.09741933741986,0.011903745304957322
1,0,0,504,119.04761904761905,2,56.30039424560527,47,4117.300000071526,-9.300394245605268,5,156,6,0,0,81.0,0.9003488729557851,54.5426333939452,65.33949053508695,-15.775924397506031,-15.410264031628865,0.00289248276125452
1,0,1,918,65.359477124183,2,13.046873249910696,0,2301.200000047684,-13.046873249910696,5,157,6,0,0,81.0,0.9003488729557851,54.5426333939452,65.33949053508695,-6.252663883358629,-6.417869446707277,0.002570504312745222
1,0,0,774,77.51937984496124,0,25.354902613380577,6,2088.1999999284744,-19.354902613380577,5,158,6,0,0,81.0,0.9003488729557851,54.5426333939452,65.33949053508695,-16.336671245358886,-15.911962921947751,0.006757349929775006
1,0,2,425,141.1764705882353,2,68.5984388693479,100,1609.4000000953674,31.401561130652098,5,159,6,0,0,81.0,0.9003488729557851,54.5426333939452,65.33949053508695,21.1531161966318,25.1572336651507,0.007476338525057557
1,0,4,774,77.51937984496124,0,25.354902613380577,43,2026.8000000715256,17.645097386619423,5,160,6,0,0,81.0,0.9003488729557851,54.5426333939452,65.33949053508695,20.663328754641114,24.508620827167107,0.007003603863740206
1,0,2,504,119.04761904761905,2,56.30039424560527,86,1293.6999999284744,29.69960575439473,5,161,6,0,0,81.0,0.9003488729557851,54.5426333939452,65.33949053508695,23.22407560249397,27.937309363567593,0.005980631535522508
1,0,3,774,77.51937984496124,0,25.354902613380577,0,2830.100000023842,-25.354902613380577,5,162,6,0,0,81.0,0.9003488729557851,54.5426333939452,65.33949053508695,-22.336671245358886,-21.09741933741986,0.011903745304957322
1,0,5,302,198.67549668874173,2,93.24415345434716,100,3109.599999904633,6.755846545652844,5,163,6,0,0,81.0,0.9003488729557851,54.5426333939452,65.33949053508695,-11.053652500508463,-11.064742195587032,0.003347495025198003
1,0,4,390,153.84615384615384,0,74.79787473312055,98,1823.5,23.20212526687945,5,164,6,0,0,81.0,0.9003488729557851,54.5426333939452,65.33949053508695,11.051756577754759,12.439083462527268,0.002844750440950052
1,0,0,329,182.370820668693,2,87.06720173383901,78,5971.399999976158,-9.067201733839013,5,165,6,0,0,81.0,0.9003488729557851,54.5426333939452,65.33949053508695,-24.98167493095187,-23.28059391602569,0.01758391238841257
1,0,4,843,71.17437722419929,1,19.194949373496982,38,7368.100000023842,18.805050626503018,5,166,6,0,0,81.0,0.9003488729557851,54.5426333939452,65.33949053508695,23.713092882920165,28.60273283470393,0.01161171243621388
1,0,3,329,182.370820668693,2,87.06720173383901,100,1845.399999976158,12.932798266160987,5,167,6,0,0,81.0,0.9003488729557851,54.5426333939452,65.33949053508695,-2.9816749309518684,-3.1135767627421527,6.60722810670958e-05
1,0,5,504,119.04761904761905,2,56.30039424560527,48,3299.6999999284744,-8.300394245605268,5,168,6,0,0,81.0,0.9003488729557851,54.5426333939452,65.33949053508695,-14.775924397506031,-14.508125968753344,0.002542161201625207
1,0,2,652,92.02453987730061,1,37.727982709047225,38,2971.700000047684,0.2720172909527747,5,169,6,0,0,81.0,0.9003488729557851,54.5426333939452,65.33949053508695,-0.5056862413725511,-0.5350156486038352,4.191484213061415e-05
1,0,1,550,109.0909090909091,2,50.0,43,1698.100000023842,-7.0,5,170,6,0,0,81.0,0.9003488729557851,54.5426333939452,65.33949053508695,-11.542633393945202,-11.524881841160333,0.001574835451295763
1,0,2,843,71.17437722419929,0,19.194949373496982,0,1852.200000047684,-19.194949373496982,5,171,6,0,0,81.0,0.9003488729557851,54.5426333939452,65.33949053508695,-14.286907117079835,-14.06346834812009,0.007044418032772647
1,0,1,358,167.5977653631285,1,80.97360155738828,97,1921.700000047684,16.026398442611722,5,172,6,0,0,81.0,0.9003488729557851,54.5426333939452,65.33949053508695,1.981379690124271,2.124172065749314,0.00025708188333025496
1,0,5,425,141.1764705882353,2,68.5984388693479,100,1346.899999976158,31.401561130652098,5,173,6,0,0,81.0,0.9003488729557851,54.5426333939452,65.33949053508695,21.1531161966318,25.1572336651507,0.007476338525057557
1,0,4,504,119.04761904761905,0,56.30039424560527,52,1765.399999976158,-4.300394245605268,5,174,6,0,0,81.0,0.9003488729557851,54.5426333939452,65.33949053508695,-10.775924397506031,-10.802330347222242,0.0013669301533888085
1,0,5,1000,60.0,0,6.875176187496734,0,2877.399999976158,-6.875176187496734,5,175,6,0,0,81.0,0.9003488729557851,54.5426333939452,65.33949053508695,1.8124469525417908,1.9413186855040483,6.208188297336336e-05
1,0,4,358,167.5977653631285,1,80.97360155738828,99,3209.100000023842,18.026398442611722,5,176,6,0,0,81.0,0.9003488729557851,54.5426333939452,65.33949053508695,3.981379690124271,4.3140684929204145,0.000682710417629814
1,0,3,425,141.1764705882353,2,68.5984388693479,99,6668.599999904633,30.401561130652098,5,177,6,0,0,81.0,0.9003488729557851,54.5426333939452,65.33949053508695,20.1531161966318,23.836533825394344,0.0068012653517328875
1,0,0,1000,60.0,0,6.875176187496734,0,1739.5999999046326,-6.875176187496734,5,178,6,0,0,81.0,0.9003488729557851,54.5426333939452,65.33949053508695,1.8124469525417908,1.9413186855040483,6.208188297336336e-05
1,0,1,390,153.84615384615384,0,74.79787473312055,98,2068.899999976158,23.20212526687945,5,179,6,0,0,81.0,0.9003488729557851,54.5426333939452,65.33949053508695,11.051756577754759,12.439083462527268,0.002844750440950052
1,0,3,1000,60.0,1,6.875176187496734,1,3789.0,-5.875176187496734,5,180,6,0,0,81.0,0.9003488729557851,54.5426333939452,65.33949053508695,2.812446952541791,3.0285090250069757,2.4236329470243913e-06
2,0,5,774,77.51937984496124,0,25.354902613380577,33,2478.800000000745,7.6450973866194225,0,1,2,3,1,0.0,0.45014210096769447,52.92594739667858,8.262572797410046,-15.853309171554521,-73.55052846754393,0.015529368534072328
2,0,2,843,71.17437722419929,1,19.194949373496982,38,2874.5,18.805050626503018,0,2,2,3,1,0.0,0.45014210096769447,52.92594739667858,8.262572797410046,-9.835367930090918,-56.180398875557366,0.007416979108635125
2,0,1,710,84.50704225352112,0,31.580629700998873,43,3974.5,11.419370299001127,0,3,2,3,1,0.0,0.45014210096769447,52.92594739667858,8.262572797410046,-6.882119637119594,-43.861086774483375,0.002294608971308916
2,0,4,425,141.1764705882353,2,68.5984388693479,67,2120.5999999996275,-1.598438869347902,0,4,2,3,1,0.0,0.45014210096769447,52.92594739667858,8.262572797410046,11.00063350179807,151.6434644270764,0.005885613569826547
2,0,5,599,100.1669449081803,1,43.84378078116181,54,5681.599999999628,10.156219218838189,0,5,2,3,1,0.0,0.45014210096769447,52.92594739667858,8.262572797410046,2.091376792370724,19.17771376426902,0.00015748668103882882
2,0,1,390,153.84615384615384,1,74.79787473312055,56,4784.0,-18.79787473312055,0,6,2,3,1,0.0,0.45014210096769447,52.92594739667858,8.262572797410046,-1.0238323007478556,-8.230417202142343,9.307926442746871e-05
2,0,3,504,119.04761904761905,2,56.30039424560527,64,1994.4000000003723,7.699605754394732,0,7,2,3,1,0.0,0.45014210096769447,52.92594739667858,8.262572797410046,10.03290328118748,132.02157889422975,0.0035147542970794562
2,0,1,302,198.67549668874173,0,93.24415345434716,81,2673.0,-12.244153454347156,0,8,2,3,1,0.0,0.45014210096769447,52.92594739667858,8.262572797410046,20.92789328374313,478.71551790697606,0.05312310338642434
2,0,5,918,65.359477124183,0,13.046873249910696,23,1734.5999999996277,9.953126750089304,0,9,2,3,1,0.0,0.45014210096769447,52.92594739667858,8.262572797410046,-23.819389399387916,-86.44220366019132,0.05582270432529151
2,0,1,550,109.0909090909091,0,50.0,53,7022.9000000003725,3.0,0,10,2,3,1,0.0,0.45014210096769447,52.92594739667858,8.262572797410046,0.0740526033214195,0.6231608616027854,8.608041334950119e-08
2,0,0,390,153.84615384615384,2,74.79787473312055,55,4079.099999999628,-19.79787473312055,0,11,2,3,1,0.0,0.45014210096769447,52.92594739667858,8.262572797410046,-2.0238323007478556,-15.614894840745821,0.00030915942031946905
2,0,4,652,92.02453987730061,1,37.727982709047225,47,2428.7000000001863,9.272017290952775,0,12,2,3,1,0.0,0.45014210096769447,52.92594739667858,8.262572797410046,-3.8979786719271345,-27.891727120029806,0.0006010864273551247
2,0,1,918,65.359477124183,2,13.046873249910696,38,3682.300000000745,24.953126750089304,0,13,2,3,1,0.0,0.45014210096769447,52.92594739667858,8.262572797410046,-8.819389399387916,-52.28185785025107,0.007403536307878967
2,0,3,774,77.51937984496124,1,25.354902613380577,46,3446.100000000559,20.645097386619423,0,14,2,3,1,0.0,0.45014210096769447,52.92594739667858,8.262572797410046,-2.853309171554521,-21.28717542624668,0.00046185799590146365
2,0,0,1000,60.0,0,6.875176187496734,37,2403.2000000001863,30.124823812503266,0,15,2,3,1,0.0,0.45014210096769447,52.92594739667858,8.262572797410046,-8.799507474152769,-52.20220260958226,0.009104143634910706
2,0,4,358,167.5977653631285,2,80.97360155738828,77,2973.9000000003725,-3.973601557388278,0,16,2,3,1,0.0,0.45014210096769447,52.92594739667858,8.262572797410046,18.955619850003544,390.46651875242327,0.02795412383356413
2,0,2,599,100.1669449081803,0,43.84378078116181,57,2672.7000000001863,13.156219218838189,0,17,2,3,1,0.0,0.45014210096769447,52.92594739667858,8.262572797410046,5.091376792370724,53.28297966890246,0.0009237557028078939
2,0,3,843,71.17437722419929,2,19.194949373496982,56,2411.5999999996275,36.80505062650302,0,18,2,3,1,0.0,0.45014210096769447,52.92594739667858,8.262572797410046,8.164632069909082,98.36348281690769,0.005554955444475989
2,0,4,504,119.04761904761905,2,56.30039424560527,63,2485.7999999998137,6.699605754394732,0,19,2,3,1,0.0,0.45014210096769447,52.92594739667858,8.262572797410046,9.03290328118748,113.35136041026911,0.002844836374570114
2,0,5,302,198.67549668874173,2,93.24415345434716,89,9431.5,-4.244153454347156,0,20,2,3,1,0.0,0.45014210096769447,52.92594739667858,8.262572797410046,28.92789328374313,1032.2147775161427,0.1023664109324676
2,0,0,599,100.1669449081803,0,43.84378078116181,42,4384.099999999628,-1.8437807811618114,0,21,2,3,1,0.0,0.45014210096769447,52.92594739667858,8.262572797410046,-9.908623207629276,-56.44886143747432,0.0034605629681307816
2,0,5,390,153.84615384615384,0,74.79787473312055,66,4362.299999999814,-8.797874733120551,0,22,2,3,1,0.0,0.45014210096769447,52.92594739667858,8.262572797410046,8.976167699252144,112.33831717770963,0.004858639654118677
2,0,2,302,198.67549668874173,1,93.24415345434716,59,2852.399999999441,-34.244153454347156,0,23,2,3,1,0.0,0.45014210096769447,52.92594739667858,8.262572797410046,-1.0721067162568687,-8.601308676624317,0.00024145418583387677
2,0,3,390,153.84615384615384,1,74.79787473312055,62,3123.2000000001863,-12.797874733120551,0,24,2,3,1,0.0,0.45014210096769447,52.92594739667858,8.262572797410046,4.976167699252144,51.80865259643283,0.001441209254908839
2,0,0,710,84.50704225352112,1,31.580629700998873,60,2434.600000000559,28.419370299001127,0,25,2,3,1,0.0,0.45014210096769447,52.92594739667858,8.262572797410046,10.117880362880406,133.68150691160375,0.005213076243807939
2,0,4,918,65.359477124183,0,13.046873249910696,54,5502.5,40.953126750089304,0,26,2,3,1,0.0,0.45014210096769447,52.92594739667858,8.262572797410046,7.180610600612084,82.64631258029878,0.005504993783469996
2,0,3,358,167.5977653631285,2,80.97360155738828,59,4590.700000000186,-21.973601557388278,0,27,2,3,1,0.0,0.45014210096769447,52.92594739667858,8.262572797410046,0.9556198500035435,8.34679302572349,4.153352479712978e-05
2,0,2,425,141.1764705882353,1,68.5984388693479,57,4962.300000000745,-11.598438869347902,0,28,2,3,1,0.0,0.45014210096769447,52.92594739667858,8.262572797410046,1.0006335017980703,8.756705107318103,3.6184107223172525e-05
2,0,0,302,198.67549668874173,0,93.24415345434716,40,2943.9000000003725,-53.244153454347156,0,29,2,3,1,0.0,0.45014210096769447,52.92594739667858,8.262572797410046,-20.07210671625687,-81.4341981448656,0.05199013724479548
2,0,2,774,77.51937984496124,2,25.354902613380577,63,3308.4000000003725,37.645097386619426,0,30,2,3,1,0.0,0.45014210096769447,52.92594739667858,8.262572797410046,14.146690828445479,227.6467320586276,0.012851895805062854
2,0,3,463,129.58963282937364,2,62.42097125758927,59,6376.300000000745,-3.4209712575892723,1,31,2,3,1,0.0,0.45014210096769447,52.92594739667858,8.262572797410046,4.021469018714036,40.12448371762565,0.0006252526979926614
2,0,4,843,71.17437722419929,2,19.194949373496982,59,4661.0,39.80505062650302,1,32,2,3,1,0.0,0.45014210096769447,52.92594739667858,8.262572797410046,11.164632069909082,155.12945955498577,0.01026313862444507
2,0,0,358,167.5977653631285,1,80.97360155738828,56,7821.5,-24.973601557388278,1,33,2,3,1,0.0,0.45014210096769447,52.92594739667858,8.262572797410046,-2.0443801499964565,-15.760229124017853,0.0004140025235700107
2,0,1,599,100.1669449081803,2,43.84378078116181,57,9626.39999999944,13.156219218838189,1,34,2,3,1,0.0,0.45014210096769447,52.92594739667858,8.262572797410046,5.091376792370724,53.28297966890246,0.0009237557028078939
2,0,5,329,182.370820668693,0,87.06720173383901,60,3047.2999999998137,-27.067201733839013,1,35,2,3,1,0.0,0.45014210096769447,52.92594739667858,8.262572797410046,0.9486435488788416,8.283402498475546,4.542169977758085e-05
2,0,0,550,109.0909090909091,2,50.0,57,5754.0,7.0,1,36,2,3,1,0.0,0.45014210096769447,52.92594739667858,8.262572797410046,4.0740526033214195,40.74397131535285,0.0005501651375647385
2,0,5,425,141.1764705882353,2,68.5984388693479,55,5558.099999999628,-13.598438869347902,1,37,2,3,1,0.0,0.45014210096769447,52.92594739667858,8.262572797410046,-0.9993664982019297,-8.041872582864046,6.60182783885338e-05
2,0,2,710,84.50704225352112,1,31.580629700998873,58,7432.0999999996275,26.419370299001127,1,38,2,3,1,0.0,0.45014210096769447,52.92594739667858,8.262572797410046,8.117880362880406,97.58702478528501,0.0033723324965055377
2,0,5,1000,60.0,2,6.875176187496734,60,7325.900000000372,53.124823812503266,1,39,2,3,1,0.0,0.45014210096769447,52.92594739667858,8.262572797410046,14.200492525847231,229.12888297408978,0.02620174296424903
2,0,4,329,182.370820668693,1,87.06720173383901,57,5452.200000000186,-30.067201733839013,1,40,2,3,1,0.0,0.45014210096769447,52.92594739667858,8.262572797410046,-2.0513564511211584,-15.809515340452563,0.000542550991627451
2,0,3,1000,60.0,0,6.875176187496734,42,5680.700000000186,35.124823812503266,1,41,2,3,1,0.0,0.45014210096769447,52.92594739667858,8.262572797410046,-3.799507474152769,-27.293591715316065,0.0015589925370159835
2,0,4,463,129.58963282937364,0,62.42097125758927,60,5501.799999999814,-2.4209712575892723,1,42,2,3,1,0.0,0.45014210096769447,52.92594739667858,8.262572797410046,5.021469018714036,52.38667281700358,0.0009856004025251043
2,0,0,774,77.51937984496124,0,25.354902613380577,56,36629.09999999963,30.645097386619423,1,43,2,3,1,0.0,0.45014210096769447,52.92594739667858,8.262572797410046,7.146690828445479,82.12732586036365,0.0033450971375257803
2,0,2,463,129.58963282937364,0,62.42097125758927,66,4384.700000000186,3.5790287424107277,1,44,2,3,1,0.0,0.45014210096769447,52.92594739667858,8.262572797410046,11.021469018714036,152.0836944955886,0.004862216157922389
2,0,5,652,92.02453987730061,2,37.727982709047225,63,3122.100000000559,25.272017290952775,1,45,2,3,1,0.0,0.45014210096769447,52.92594739667858,8.262572797410046,12.102021328072865,176.00215672122118,0.006036145746245331
2,0,0,425,141.1764705882353,1,68.5984388693479,66,21974.5,-2.598438869347902,1,46,2,3,1,0.0,0.45014210096769447,52.92594739667858,8.262572797410046,10.00063350179807,131.3943200013502,0.004850775599683947
2,0,2,329,182.370820668693,2,87.06720173383901,60,3915.7999999998137,-27.067201733839013,1,47,2,3,1,0.0,0.45014210096769447,52.92594739667858,8.262572797410046,0.9486435488788416,8.283402498475546,4.542169977758085e-05
2,0,1,652,92.02453987730061,2,37.727982709047225,56,5709.200000000186,18.272017290952775,1,48,2,3,1,0.0,0.45014210096769447,52.92594739667858,8.262572797410046,5.1020213280728655,53.419917908213314,0.001087409483336503
2,0,0,918,65.359477124183,2,13.046873249910696,37,4120.800000000745,23.953126750089304,1,49,2,3,1,0.0,0.45014210096769447,52.92594739667858,8.262572797410046,-9.819389399387916,-56.12162199559651,0.009227287333532473
2,0,3,652,92.02453987730061,0,37.727982709047225,54,2884.4000000003725,16.272017290952775,1,50,2,3,1,0.0,0.45014210096769447,52.92594739667858,8.262572797410046,3.1020213280728655,29.722653379471453,0.0004080270684752272
2,0,2,918,65.359477124183,0,13.046873249910696,42,5447.700000000186,28.953126750089304,1,51,2,3,1,0.0,0.45014210096769447,52.92594739667858,8.262572797410046,-4.819389399387916,-33.25551719466014,0.002114522932180168
2,0,4,550,109.0909090909091,1,50.0,56,4342.799999999814,6.0,1,52,2,3,1,0.0,0.45014210096769447,52.92594739667858,8.262572797410046,3.0740526033214195,29.418642407235147,0.00031205392504952853
2,0,3,302,198.67549668874173,0,93.24415345434716,57,2338.5999999996275,-36.244153454347156,1,53,2,3,1,0.0,0.45014210096769447,52.92594739667858,8.262572797410046,-3.0721067162568687,-22.718764841388076,0.0014367549167640919
2,0,5,550,109.0909090909091,2,50.0,52,5024.700000000186,2.0,1,54,2,3,1,0.0,0.45014210096769447,52.92594739667858,8.262572797410046,-0.9259473966785805,-7.473742912546828,3.0218729837773747e-05
2,0,1,425,141.1764705882353,2,68.5984388693479,59,18912.39999999944,-9.598438869347902,1,55,2,3,1,0.0,0.45014210096769447,52.92594739667858,8.262572797410046,3.0006335017980703,28.623986133889616,0.0004062566239531567
2,0,3,599,100.1669449081803,0,43.84378078116181,56,3539.5999999996275,12.156219218838189,1,56,2,3,1,0.0,0.45014210096769447,52.92594739667858,8.262572797410046,4.091376792370724,40.94866691260701,0.0005975754469496699
2,0,1,1000,60.0,1,6.875176187496734,41,6583.399999999441,34.124823812503266,1,57,2,3,1,0.0,0.45014210096769447,52.92594739667858,8.262572797410046,-4.799507474152769,-33.14410154430876,0.0025674885113808796
2,0,4,710,84.50704225352112,0,31.580629700998873,56,4476.200000000186,24.419370299001127,1,58,2,3,1,0.0,0.45014210096769447,52.92594739667858,8.262572797410046,6.117880362880406,67.06770201661267,0.0019308939909151797
2,0,1,358,167.5977653631285,1,80.97360155738828,67,2768.100000000559,-13.973601557388278,1,59,2,3,1,0.0,0.45014210096769447,52.92594739667858,8.262572797410046,8.955619850003544,111.97261238798437,0.006066726190830232
2,0,2,504,119.04761904761905,2,56.30039424560527,61,2331.0,4.699605754394732,1,60,2,3,1,0.0,0.45014210096769447,52.92594739667858,8.262572797410046,7.03290328118748,80.39707589400537,0.001717298143472213
2,0,2,358,167.5977653631285,0,80.97360155738828,58,1780.0,-22.973601557388278,2,61,2,3,1,0.0,0.45014210096769447,52.92594739667858,8.262572797410046,-0.04438014999645645,-0.37161285474362676,6.179782052617725e-06
2,0,3,550,109.0909090909091,1,50.0,57,1173.3999999994412,7.0,2,62,2,3,1,0.0,0.45014210096769447,52.92594739667858,8.262572797410046,4.0740526033214195,40.74397131535285,0.0005501651375647385
2,0,2,652,92.02453987730061,0,37.727982709047225,54,2421.4000000003725,16.272017290952775,2,63,2,3,1,0.0,0.45014210096769447,52.92594739667858,8.262572797410046,3.1020213280728655,29.722653379471453,0.0004080270684752272
2,0,4,599,100.1669449081803,0,43.84378078116181,53,3027.5999999996275,9.156219218838189,2,64,2,3,1,0.0,0.45014210096769447,52.92594739667858,8.262572797410046,1.091376792370724,9.587769738363766,4.3578170986211865e-05
2,0,5,710,84.50704225352112,1,31.580629700998873,47,2946.9000000003725,15.419370299001127,2,65,2,3,1,0.0,0.45014210096769447,52.92594739667858,8.262572797410046,-2.882119637119594,-21.477187508007912,0.0003858230819451099
2,0,4,390,153.84615384615384,1,74.79787473312055,64,2598.600000000559,-10.797874733120551,2,66,2,3,1,0.0,0.45014210096769447,52.92594739667858,8.262572797410046,6.976167699252144,79.54050747767779,0.002898056747291532
2,0,5,504,119.04761904761905,0,56.30039424560527,60,1819.5,3.6996057543947316,2,67,2,3,1,0.0,0.45014210096769447,52.92594739667858,8.262572797410046,6.03290328118748,65.88095701894125,0.0012596778348836534
2,0,0,843,71.17437722419929,1,19.194949373496982,52,4726.199999999255,32.80505062650302,2,68,2,3,1,0.0,0.45014210096769447,52.92594739667858,8.262572797410046,4.164632069909082,41.81751768131459,0.0015078314077745184
2,0,1,504,119.04761904761905,1,56.30039424560527,55,2615.9000000003725,-1.3003942456052684,2,69,2,3,1,0.0,0.45014210096769447,52.92594739667858,8.262572797410046,1.0329032811874796,9.051520513497701,3.3064361544767215e-05
2,0,0,463,129.58963282937364,0,62.42097125758927,45,3668.900000000373,-17.420971257589272,2,70,2,3,1,0.0,0.45014210096769447,52.92594739667858,8.262572797410046,-9.978530981285964,-56.70352235276908,0.004153032475551605
2,0,3,918,65.359477124183,1,13.046873249910696,55,1951.2000000001865,41.953126750089304,2,71,2,3,1,0.0,0.45014210096769447,52.92594739667858,8.262572797410046,8.180610600612084,98.62955522101369,0.007091426993572382
2,0,5,463,129.58963282937364,1,62.42097125758927,58,2975.300000000745,-4.420971257589272,2,72,2,3,1,0.0,0.45014210096769447,52.92594739667858,8.262572797410046,3.0214690187140363,28.8490034867422,0.0003465492567079628
2,0,0,652,92.02453987730061,2,37.727982709047225,57,2776.399999999441,19.272017290952775,2,73,2,3,1,0.0,0.45014210096769447,52.92594739667858,8.262572797410046,6.1020213280728655,66.8455805411092,0.001549524396047825
2,0,1,329,182.370820668693,2,87.06720173383901,74,2041.7000000001865,-13.067201733839013,2,74,2,3,1,0.0,0.45014210096769447,52.92594739667858,8.262572797410046,14.948643548878842,250.44781226578962,0.021576740150409567
2,0,4,774,77.51937984496124,2,25.354902613380577,56,1580.2999999998135,30.645097386619423,2,75,2,3,1,0.0,0.45014210096769447,52.92594739667858,8.262572797410046,7.146690828445479,82.12732586036365,0.0033450971375257803
2,0,1,463,129.58963282937364,0,62.42097125758927,52,2540.100000000559,-10.420971257589272,2,76,2,3,1,0.0,0.45014210096769447,52.92594739667858,8.262572797410046,-2.9785309812859637,-22.109714488198506,0.0003888581372023998
2,0,4,302,198.67549668874173,0,93.24415345434716,58,2465.399999999441,-35.244153454347156,2,77,2,3,1,0.0,0.45014210096769447,52.92594739667858,8.262572797410046,-2.0721067162568687,-15.955941570202722,0.0007140478141004564
2,0,1,774,77.51937984496124,1,25.354902613380577,45,4356.099999999628,19.645097386619423,2,78,2,3,1,0.0,0.45014210096769447,52.92594739667858,8.262572797410046,-3.853309171554521,-27.621007129683072,0.0008657512578096246
2,0,4,1000,60.0,1,6.875176187496734,44,7571.900000000372,37.124823812503266,2,79,2,3,1,0.0,0.45014210096769447,52.92594739667858,8.262572797410046,-1.7995074741527688,-14.011848356144831,0.0002928019561072654
2,0,3,710,84.50704225352112,2,31.580629700998873,58,1790.699999999255,26.419370299001127,2,80,2,3,1,0.0,0.45014210096769447,52.92594739667858,8.262572797410046,8.117880362880406,97.58702478528501,0.0033723324965055377
2,0,5,358,167.5977653631285,1,80.97360155738828,78,2509.0999999996275,-2.973601557388278,2,81,2,3,1,0.0,0.45014210096769447,52.92594739667858,8.262572797410046,19.955619850003544,433.3868781378353,0.031020169014015955
2,0,0,504,119.04761904761905,1,56.30039424560527,40,3883.0,-16.30039424560527,2,82,2,3,1,0.0,0.45014210096769447,52.92594739667858,8.262572797410046,-13.96709671881252,-69.01601279805382,0.006968104637567219
2,0,2,390,153.84615384615384,2,74.79787473312055,58,1595.6000000005588,-16.79787473312055,2,83,2,3,1,0.0,0.45014210096769447,52.92594739667858,8.262572797410046,0.9761676992521444,8.53371783980444,3.87205134768069e-05
2,0,0,329,182.370820668693,2,87.06720173383901,54,2452.600000000559,-33.06720173383901,2,84,2,3,1,0.0,0.45014210096769447,52.92594739667858,8.262572797410046,-5.051356451121158,-34.54178993581885,0.0028435567230855768
2,0,5,843,71.17437722419929,1,19.194949373496982,60,4374.100000000559,40.80505062650302,2,85,2,3,1,0.0,0.45014210096769447,52.92594739667858,8.262572797410046,12.164632069909082,177.45564834715768,0.012151169237281042
2,0,2,550,109.0909090909091,1,50.0,56,1553.7000000001865,6.0,2,86,2,3,1,0.0,0.45014210096769447,52.92594739667858,8.262572797410046,3.0740526033214195,29.418642407235147,0.00031205392504952853
2,0,3,329,182.370820668693,1,87.06720173383901,68,1524.3999999994412,-19.067201733839013,2,87,2,3,1,0.0,0.45014210096769447,52.92594739667858,8.262572797410046,8.948643548878842,111.84859343655856,0.007538695070707176
2,0,1,843,71.17437722419929,0,19.194949373496982,40,1365.9000000003723,20.805050626503018,2,88,2,3,1,0.0,0.45014210096769447,52.92594739667858,8.262572797410046,-7.835367930090918,-48.17559283484004,0.004660997834291627
2,0,3,425,141.1764705882353,0,68.5984388693479,58,2011.800000000745,-10.598438869347902,2,89,2,3,1,0.0,0.45014210096769447,52.92594739667858,8.262572797410046,2.0006335017980703,18.273923286966365,0.00017123202960124642
2,0,2,1000,60.0,2,6.875176187496734,19,5719.099999999628,12.124823812503266,2,90,2,3,1,0.0,0.45014210096769447,52.92594739667858,8.262572797410046,-26.79950747415277,-89.44119962741192,0.08807198196698578
2,0,2,710,84.50704225352112,2,31.580629700998873,57,4670.9000000003725,25.419370299001127,3,91,2,3,1,0.0,0.45014210096769447,52.92594739667858,8.262572797410046,7.117880362880406,81.68767206163733,0.0026017000884963537
2,0,0,302,198.67549668874173,1,93.24415345434716,60,1123.199999999255,-33.244153454347156,3,92,2,3,1,0.0,0.45014210096769447,52.92594739667858,8.262572797410046,-0.07210671625686871,-0.6030773418248891,1.8974031964353268e-05
2,0,3,710,84.50704225352112,2,31.580629700998873,43,3517.600000000559,11.419370299001127,3,93,2,3,1,0.0,0.45014210096769447,52.92594739667858,8.262572797410046,-6.882119637119594,-43.861086774483375,0.002294608971308916
2,0,2,1000,60.0,1,6.875176187496734,37,1177.9000000003723,30.124823812503266,3,94,2,3,1,0.0,0.45014210096769447,52.92594739667858,8.262572797410046,-8.799507474152769,-52.20220260958226,0.009104143634910706
2,0,0,774,77.51937984496124,2,25.354902613380577,44,1809.6000000005588,18.645097386619423,3,95,2,3,1,0.0,0.45014210096769447,52.92594739667858,8.262572797410046,-4.853309171554521,-33.4451706276561,0.001395502188094257
2,0,4,504,119.04761904761905,0,56.30039424560527,46,1998.9000000003723,-10.300394245605268,3,96,2,3,1,0.0,0.45014210096769447,52.92594739667858,8.262572797410046,-7.96709671881252,-48.74513748685831,0.0022834100018711985
2,0,1,774,77.51937984496124,1,25.354902613380577,45,2856.0999999996275,19.645097386619423,3,97,2,3,1,0.0,0.45014210096769447,52.92594739667858,8.262572797410046,-3.853309171554521,-27.621007129683072,0.0008657512578096246
2,0,2,329,182.370820668693,1,87.06720173383901,47,2053.0,-40.06720173383901,3,98,2,3,1,0.0,0.45014210096769447,52.92594739667858,8.262572797410046,-12.051356451121158,-63.614077028358594,0.015227645139408866
2,0,1,843,71.17437722419929,0,19.194949373496982,66,2953.600000000559,46.80505062650302,3,99,2,3,1,0.0,0.45014210096769447,52.92594739667858,8.262572797410046,18.164632069909082,358.9774394379723,0.02682503321918286
2,0,2,463,129.58963282937364,1,62.42097125758927,57,2543.600000000559,-5.420971257589272,3,100,2,3,1,0.0,0.45014210096769447,52.92594739667858,8.262572797410046,2.0214690187140363,18.48083403456068,0.0001494900786710085
2,0,4,652,92.02453987730061,1,37.727982709047225,57,2409.600000000559,19.272017290952775,3,101,2,3,1,0.0,0.45014210096769447,52.92594739667858,8.262572797410046,6.1020213280728655,66.8455805411092,0.001549524396047825
2,0,0,504,119.04761904761905,2,56.30039424560527,56,2398.5999999996275,-0.3003942456052684,3,102,2,3,1,0.0,0.45014210096769447,52.92594739667858,8.262572797410046,2.0329032811874796,18.594537769539116,0.00013685531359868965
2,0,4,843,71.17437722419929,1,19.194949373496982,57,2276.5,37.80505062650302,3,103,2,3,1,0.0,0.45014210096769447,52.92594739667858,8.262572797410046,9.164632069909082,115.72212330698626,0.006965031728042541
2,0,3,550,109.0909090909091,0,50.0,53,6544.200000000186,3.0,3,104,2,3,1,0.0,0.45014210096769447,52.92594739667858,8.262572797410046,0.0740526033214195,0.6231608616027854,8.608041334950119e-08
2,0,4,329,182.370820668693,2,87.06720173383901,54,3247.2999999998137,-33.06720173383901,3,105,2,3,1,0.0,0.45014210096769447,52.92594739667858,8.262572797410046,-5.051356451121158,-34.54178993581885,0.0028435567230855768
2,0,3,463,129.58963282937364,2,62.42097125758927,55,2720.7999999998137,-7.420971257589272,3,106,2,3,1,0.0,0.45014210096769447,52.92594739667858,8.262572797410046,0.02146901871403628,0.18026586855047588,3.045123403324029e-07
2,0,5,918,65.359477124183,1,13.046873249910696,54,10102.400000000373,40.953126750089304,3,107,2,3,1,0.0,0.45014210096769447,52.92594739667858,8.262572797410046,7.180610600612084,82.64631258029878,0.005504993783469996
2,0,4,463,129.58963282937364,0,62.42097125758927,55,2768.5,-7.420971257589272,3,108,2,3,1,0.0,0.45014210096769447,52.92594739667858,8.262572797410046,0.02146901871403628,0.18026586855047588,3.045123403324029e-07
2,0,1,599,100.1669449081803,0,43.84378078116181,55,4838.5,11.156219218838189,3,109,2,3,1,0.0,0.45014210096769447,52.92594739667858,8.262572797410046,3.091376792370724,29.606866642033978,0.0003421524396933148
2,0,5,390,153.84615384615384,2,74.79787473312055,57,6226.600000000559,-17.79787473312055,3,110,2,3,1,0.0,0.45014210096769447,52.92594739667858,8.262572797410046,-0.023832300747855584,-0.19972943093161177,2.932962146581335e-06
2,0,2,550,109.0909090909091,0,50.0,56,1809.1000000005588,6.0,3,111,2,3,1,0.0,0.45014210096769447,52.92594739667858,8.262572797410046,3.0740526033214195,29.418642407235147,0.00031205392504952853
2,0,1,390,153.84615384615384,0,74.79787473312055,55,3782.7999999998137,-19.79787473312055,3,112,2,3,1,0.0,0.45014210096769447,52.92594739667858,8.262572797410046,-2.0238323007478556,-15.614894840745821,0.00030915942031946905
2,0,5,504,119.04761904761905,0,56.30039424560527,58,2246.5,1.6996057543947316,3,113,2,3,1,0.0,0.45014210096769447,52.92594739667858,8.262572797410046,4.03290328118748,40.25895843913189,0.0005567348316273166
2,0,0,843,71.17437722419929,0,19.194949373496982,39,2296.2000000001863,19.805050626503018,3,114,2,3,1,0.0,0.45014210096769447,52.92594739667858,8.262572797410046,-8.835367930090918,-52.34577825115579,0.0059593294165851355
2,0,5,774,77.51937984496124,2,25.354902613380577,45,3427.5,19.645097386619423,3,115,2,3,1,0.0,0.45014210096769447,52.92594739667858,8.262572797410046,-3.853309171554521,-27.621007129683072,0.0008657512578096246
2,0,3,329,182.370820668693,2,87.06720173383901,61,3174.399999999441,-26.067201733839013,3,116,2,3,1,0.0,0.45014210096769447,52.92594739667858,8.262572797410046,1.9486435488788416,17.759202319697966,0.000280573366851681
2,0,0,390,153.84615384615384,2,74.79787473312055,59,3496.0,-15.797874733120551,3,117,2,3,1,0.0,0.45014210096769447,52.92594739667858,8.262572797410046,1.9761676992521444,18.03142256992225,0.0002004419184181454
2,0,5,358,167.5977653631285,1,80.97360155738828,61,2480.7999999998137,-19.973601557388278,3,118,2,3,1,0.0,0.45014210096769447,52.92594739667858,8.262572797410046,2.9556198500035435,28.13919279772604,0.0005907712372925711
2,0,3,843,71.17437722419929,0,19.194949373496982,60,4421.200000000186,40.80505062650302,3,119,2,3,1,0.0,0.45014210096769447,52.92594739667858,8.262572797410046,12.164632069909082,177.45564834715768,0.012151169237281042
2,0,1,329,182.370820668693,1,87.06720173383901,58,1598.0,-29.067201733839013,3,120,2,3,1,0.0,0.45014210096769447,52.92594739667858,8.262572797410046,-1.0513564511211584,-8.442068796677791,0.00017641051216546594
2,0,5,550,109.0909090909091,1,50.0,57,3380.0999999996275,7.0,4,121,2,3,1,0.0,0.45014210096769447,52.92594739667858,8.262572797410046,4.0740526033214195,40.74397131535285,0.0005501651375647385
2,0,3,390,153.84615384615384,0,74.79787473312055,55,4593.0,-19.79787473312055,4,122,2,3,1,0.0,0.45014210096769447,52.92594739667858,8.262572797410046,-2.0238323007478556,-15.614894840745821,0.00030915942031946905
2,0,1,1000,60.0,2,6.875176187496734,41,2266.0,34.124823812503266,4,123,2,3,1,0.0,0.45014210096769447,52.92594739667858,8.262572797410046,-4.799507474152769,-33.14410154430876,0.0025674885113808796
2,0,3,599,100.1669449081803,1,43.84378078116181,42,1859.5,-1.8437807811618114,4,124,2,3,1,0.0,0.45014210096769447,52.92594739667858,8.262572797410046,-9.908623207629276,-56.44886143747432,0.0034605629681307816
2,0,1,463,129.58963282937364,2,62.42097125758927,54,3001.2000000001863,-8.420971257589272,4,125,2,3,1,0.0,0.45014210096769447,52.92594739667858,8.262572797410046,-0.9785309812859637,-7.880999210590052,4.817812404661066e-05
2,0,3,918,65.359477124183,2,13.046873249910696,42,2660.0,28.953126750089304,4,126,2,3,1,0.0,0.45014210096769447,52.92594739667858,8.262572797410046,-4.819389399387916,-33.25551719466014,0.002114522932180168
2,0,1,302,198.67549668874173,2,93.24415345434716,57,2187.199999999255,-36.244153454347156,4,127,2,3,1,0.0,0.45014210096769447,52.92594739667858,8.262572797410046,-3.0721067162568687,-22.718764841388076,0.0014367549167640919
2,0,5,1000,60.0,0,6.875176187496734,43,2430.300000000745,36.124823812503266,4,128,2,3,1,0.0,0.45014210096769447,52.92594739667858,8.262572797410046,-2.799507474152769,-20.93110813307518,0.0008007636852581125
2,0,3,302,198.67549668874173,1,93.24415345434716,44,4898.399999999441,-49.244153454347156,4,129,2,3,1,0.0,0.45014210096769447,52.92594739667858,8.262572797410046,-16.07210671625687,-74.03157820355574,0.03359227342152346
2,0,1,652,92.02453987730061,0,37.727982709047225,47,2551.2999999998137,9.272017290952775,4,130,2,3,1,0.0,0.45014210096769447,52.92594739667858,8.262572797410046,-3.8979786719271345,-27.891727120029806,0.0006010864273551247
2,0,4,425,141.1764705882353,1,68.5984388693479,42,4347.4000000003725,-26.598438869347902,4,131,2,3,1,0.0,0.45014210096769447,52.92594739667858,8.262572797410046,-13.99936649820193,-69.09977647900934,0.010007665908412426
2,0,0,550,109.0909090909091,0,50.0,37,1474.6000000005588,-13.0,4,132,2,3,1,0.0,0.45014210096769447,52.92594739667858,8.262572797410046,-15.92594739667858,-73.71121143527024,0.00852952432939317
2,0,4,302,198.67549668874173,0,93.24415345434716,82,1403.0,-11.244153454347156,4,133,2,3,1,0.0,0.45014210096769447,52.92594739667858,8.262572797410046,21.92789328374313,529.358481413768,0.05840311966929005
2,0,1,550,109.0909090909091,2,50.0,42,3164.0999999996275,-8.0,4,134,2,3,1,0.0,0.45014210096769447,52.92594739667858,8.262572797410046,-10.92594739667858,-60.01147544342384,0.004019898325751989
2,0,2,358,167.5977653631285,0,80.97360155738828,41,2155.5999999996275,-39.97360155738828,4,135,2,3,1,0.0,0.45014210096769447,52.92594739667858,8.262572797410046,-17.044380149996456,-76.06558835286253,0.023810207732723188
2,0,4,1000,60.0,2,6.875176187496734,43,2141.2000000001863,36.124823812503266,4,136,2,3,1,0.0,0.45014210096769447,52.92594739667858,8.262572797410046,-2.799507474152769,-20.93110813307518,0.0008007636852581125
2,0,5,425,141.1764705882353,0,68.5984388693479,46,5340.5,-22.598438869347902,4,137,2,3,1,0.0,0.45014210096769447,52.92594739667858,8.262572797410046,-9.99936649820193,-56.77913379348171,0.005149117311337559
2,0,0,358,167.5977653631285,0,80.97360155738828,41,2017.6000000005588,-39.97360155738828,4,138,2,3,1,0.0,0.45014210096769447,52.92594739667858,8.262572797410046,-17.044380149996456,-76.06558835286253,0.023810207732723188
2,0,5,710,84.50704225352112,1,31.580629700998873,47,2927.7999999998137,15.419370299001127,4,139,2,3,1,0.0,0.45014210096769447,52.92594739667858,8.262572797410046,-2.882119637119594,-21.477187508007912,0.0003858230819451099
2,0,2,843,71.17437722419929,0,19.194949373496982,41,2792.7000000001863,21.805050626503018,4,140,2,3,1,0.0,0.45014210096769447,52.92594739667858,8.262572797410046,-6.835367930090918,-43.64047760185229,0.0035219843617545934
2,0,4,774,77.51937984496124,2,25.354902613380577,45,3027.7999999998137,19.645097386619423,4,141,2,3,1,0.0,0.45014210096769447,52.92594739667858,8.262572797410046,-3.853309171554521,-27.621007129683072,0.0008657512578096246
2,0,0,463,129.58963282937364,1,62.42097125758927,44,2561.0999999996275,-18.420971257589272,4,142,2,3,1,0.0,0.45014210096769447,52.92594739667858,8.262572797410046,-10.978530981285964,-60.18748578889505,0.005017348719735325
2,0,2,652,92.02453987730061,0,37.727982709047225,41,1778.2999999998135,3.2720172909527747,4,143,2,3,1,0.0,0.45014210096769447,52.92594739667858,8.262572797410046,-9.897978671927135,-56.40995420688932,0.0039495822151213895
2,0,5,329,182.370820668693,0,87.06720173383901,43,2481.699999999255,-44.06720173383901,4,144,2,3,1,0.0,0.45014210096769447,52.92594739667858,8.262572797410046,-16.05135645112116,-73.98633457578173,0.026713742832858225
2,0,2,504,119.04761904761905,2,56.30039424560527,45,3383.5999999996275,-11.300394245605268,4,145,2,3,1,0.0,0.45014210096769447,52.92594739667858,8.262572797410046,-8.96709671881252,-52.86949301467735,0.0028872777628865497
2,0,3,652,92.02453987730061,1,37.727982709047225,39,3100.7000000001863,1.2720172909527747,4,146,2,3,1,0.0,0.45014210096769447,52.92594739667858,8.262572797410046,-11.897978671927135,-63.142879501487045,0.005718673905873795
2,0,4,550,109.0909090909091,2,50.0,40,6817.0,-10.0,4,147,2,3,1,0.0,0.45014210096769447,52.92594739667858,8.262572797410046,-12.92594739667858,-66.18810920422543,0.005622565830753736
2,0,0,710,84.50704225352112,0,31.580629700998873,41,1697.5,9.419370299001127,4,148,2,3,1,0.0,0.45014210096769447,52.92594739667858,8.262572797410046,-8.882119637119594,-52.53231209645922,0.0038479597785588842
2,0,2,425,141.1764705882353,0,68.5984388693479,39,4934.0,-29.598438869347902,4,149,2,3,1,0.0,0.45014210096769447,52.92594739667858,8.262572797410046,-16.99936649820193,-75.97503648486503,0.01470133241194386
2,0,0,918,65.359477124183,1,13.046873249910696,42,2160.600000000559,28.953126750089304,4,150,2,3,1,0.0,0.45014210096769447,52.92594739667858,8.262572797410046,-4.819389399387916,-33.25551719466014,0.002114522932180168
2,0,5,843,71.17437722419929,2,19.194949373496982,39,2347.5999999996275,19.805050626503018,5,151,2,3,1,0.0,0.45014210096769447,52.92594739667858,8.262572797410046,-8.835367930090918,-52.34577825115579,0.0059593294165851355
2,0,2,774,77.51937984496124,1,25.354902613380577,43,2002.5,17.645097386619423,5,152,2,3,1,0.0,0.45014210096769447,52.92594739667858,8.262572797410046,-5.853309171554521,-38.80067769500019,0.0020511107867553615
2,0,3,1000,60.0,1,6.875176187496734,40,1432.0999999996277,33.124823812503266,5,153,2,3,1,0.0,0.45014210096769447,52.92594739667858,8.262572797410046,-5.799507474152769,-38.523834916773474,0.0038262516083527997
2,0,5,652,92.02453987730061,0,37.727982709047225,42,2311.9000000003725,4.272017290952775,5,154,2,3,1,0.0,0.45014210096769447,52.92594739667858,8.262572797410046,-8.897978671927135,-52.59542179838608,0.003187460075025873
2,0,2,599,100.1669449081803,1,43.84378078116181,45,3163.0,1.1562192188381886,5,155,2,3,1,0.0,0.45014210096769447,52.92594739667858,8.262572797410046,-6.908623207629276,-43.985766499586774,0.0016795710402325611
2,0,3,425,141.1764705882353,1,68.5984388693479,41,1512.0,-27.598438869347902,5,156,2,3,1,0.0,0.45014210096769447,52.92594739667858,8.262572797410046,-14.99936649820193,-71.58624315633122,0.011472244737615735
2,0,0,329,182.370820668693,2,87.06720173383901,46,4070.200000000186,-41.06720173383901,5,157,2,3,1,0.0,0.45014210096769447,52.92594739667858,8.262572797410046,-13.051356451121158,-66.54196474836583,0.017798523489503164
2,0,2,390,153.84615384615384,2,74.79787473312055,42,1883.6000000005588,-32.79787473312055,5,158,2,3,1,0.0,0.45014210096769447,52.92594739667858,8.262572797410046,-15.023832300747856,-71.64450076897326,0.01457818212552675
2,0,3,358,167.5977653631285,0,80.97360155738828,41,5846.800000000745,-39.97360155738828,5,159,2,3,1,0.0,0.45014210096769447,52.92594739667858,8.262572797410046,-17.044380149996456,-76.06558835286253,0.023810207732723188
2,0,0,1000,60.0,2,6.875176187496734,43,1298.7000000001865,36.124823812503266,5,160,2,3,1,0.0,0.45014210096769447,52.92594739667858,8.262572797410046,-2.799507474152769,-20.93110813307518,0.0008007636852581125
2,0,5,302,198.67549668874173,2,93.24415345434716,60,1550.7000000001865,-33.244153454347156,5,161,2,3,1,0.0,0.45014210096769447,52.92594739667858,8.262572797410046,-0.07210671625686871,-0.6030773418248891,1.8974031964353268e-05
2,0,4,599,100.1669449081803,1,43.84378078116181,61,1743.2999999998135,17.15621921883819,5,162,2,3,1,0.0,0.45014210096769447,52.92594739667858,8.262572797410046,9.091376792370724,114.40049297720086,0.0029360492122594804
2,0,0,652,92.02453987730061,1,37.727982709047225,61,2115.0,23.272017290952775,5,163,2,3,1,0.0,0.45014210096769447,52.92594739667858,8.262572797410046,10.102021328072865,133.37082040256254,0.004214142082097672
2,0,3,504,119.04761904761905,2,56.30039424560527,59,2082.9000000003725,2.6996057543947316,5,164,2,3,1,0.0,0.45014210096769447,52.92594739667858,8.262572797410046,5.03290328118748,52.532915321130275,0.0008728233976020212
2,0,4,710,84.50704225352112,0,31.580629700998873,53,11614.200000000186,21.419370299001127,5,165,2,3,1,0.0,0.45014210096769447,52.92594739667858,8.262572797410046,3.117880362880406,29.89535311225088,0.0005174335607397258
2,0,1,918,65.359477124183,1,13.046873249910696,57,3276.300000000745,43.953126750089304,5,166,2,3,1,0.0,0.45014210096769447,52.92594739667858,8.262572797410046,10.180610600612084,134.91448303180712,0.01086609063185172
2,0,5,599,100.1669449081803,2,43.84378078116181,58,4012.2999999998137,14.156219218838189,5,167,2,3,1,0.0,0.45014210096769447,52.92594739667858,8.262572797410046,6.091376792370724,66.69665893857143,0.0013206932072679868
2,0,1,710,84.50704225352112,2,31.580629700998873,60,1685.4000000003723,28.419370299001127,5,168,2,3,1,0.0,0.45014210096769447,52.92594739667858,8.262572797410046,10.117880362880406,133.68150691160375,0.005213076243807939
2,0,0,425,141.1764705882353,0,68.5984388693479,58,4098.5,-10.598438869347902,5,169,2,3,1,0.0,0.45014210096769447,52.92594739667858,8.262572797410046,2.0006335017980703,18.273923286966365,0.00017123202960124642
2,0,1,358,167.5977653631285,0,80.97360155738828,59,4348.4000000003725,-21.973601557388278,5,170,2,3,1,0.0,0.45014210096769447,52.92594739667858,8.262572797410046,0.9556198500035435,8.34679302572349,4.153352479712978e-05
2,0,5,463,129.58963282937364,1,62.42097125758927,61,3364.399999999441,-1.4209712575892723,5,171,2,3,1,0.0,0.45014210096769447,52.92594739667858,8.262572797410046,6.021469018714036,65.7219169423105,0.001427592370305291
2,0,2,302,198.67549668874173,2,93.24415345434716,60,1530.0,-33.244153454347156,5,172,2,3,1,0.0,0.45014210096769447,52.92594739667858,8.262572797410046,-0.07210671625686871,-0.6030773418248891,1.8974031964353268e-05
2,0,1,425,141.1764705882353,1,68.5984388693479,59,1770.199999999255,-9.598438869347902,5,173,2,3,1,0.0,0.45014210096769447,52.92594739667858,8.262572797410046,3.0006335017980703,28.623986133889616,0.0004062566239531567
2,0,4,918,65.359477124183,0,13.046873249910696,59,3414.2000000001863,45.953126750089304,5,174,2,3,1,0.0,0.45014210096769447,52.92594739667858,8.262572797410046,12.180610600612084,177.82781004920162,0.01544315056089716
2,0,1,504,119.04761904761905,1,56.30039424560527,59,7764.5999999996275,2.6996057543947316,5,175,2,3,1,0.0,0.45014210096769447,52.92594739667858,8.262572797410046,5.03290328118748,52.532915321130275,0.0008728233976020212
2,0,4,390,153.84615384615384,2,74.79787473312055,58,3990.599999999628,-16.79787473312055,5,176,2,3,1,0.0,0.45014210096769447,52.92594739667858,8.262572797410046,0.9761676992521444,8.53371783980444,3.87205134768069e-05
2,0,2,918,65.359477124183,2,13.046873249910696,62,8898.799999999814,48.953126750089304,5,177,2,3,1,0.0,0.45014210096769447,52.92594739667858,8.262572797410046,15.180610600612084,257.3342130346804,0.023813233499651733
2,0,3,774,77.51937984496124,0,25.354902613380577,60,1610.1000000005588,34.645097386619426,5,178,2,3,1,0.0,0.45014210096769447,52.92594739667858,8.262572797410046,11.146690828445479,154.7457554219455,0.008022407508716705
2,0,4,358,167.5977653631285,1,80.97360155738828,59,10467.299999999814,-21.973601557388278,5,179,2,3,1,0.0,0.45014210096769447,52.92594739667858,8.262572797410046,0.9556198500035435,8.34679302572349,4.153352479712978e-05
2,0,0,599,100.1669449081803,1,43.84378078116181,61,1713.5,17.15621921883819,5,180,2,3,1,0.0,0.45014210096769447,52.92594739667858,8.262572797410046,9.091376792370724,114.40049297720086,0.0029360492122594804
3,0,1,918,65.359477124183,0,13.046873249910696,0,2947.9000000953674,-13.046873249910696,0,1,6,0,0,33.0,0.941795782694396,50.433575954087445,60.63758118121849,-5.618611489919509,-6.220720418597665,0.0024143225673219286
3,0,0,302,198.67549668874173,1,93.24415345434716,100,4912.199999928474,6.755846545652844,0,2,6,0,0,33.0,0.941795782694396,50.433575954087445,60.63758118121849,-2.877993268108355,-3.236303007314385,0.0006964557860627713
3,0,4,425,141.1764705882353,2,68.5984388693479,50,6333.200000047684,-18.598438869347902,0,3,6,0,0,33.0,0.941795782694396,50.433575954087445,60.63758118121849,-22.988862889767688,-23.109304285985978,0.01693877611529296
3,0,1,302,198.67549668874173,0,93.24415345434716,95,3466.600000023842,1.7558465456528438,0,4,6,0,0,33.0,0.941795782694396,50.433575954087445,60.63758118121849,-7.877993268108355,-8.611744356648872,0.00499688148676227
3,0,0,463,129.58963282937364,2,62.42097125758927,37,2046.899999976158,-25.420971257589272,0,5,6,0,0,33.0,0.941795782694396,50.433575954087445,60.63758118121849,-28.497129013720468,-27.80144882612146,0.021222501269914717
3,0,3,774,77.51937984496124,0,25.354902613380577,3,2173.599999904633,-22.354902613380577,0,6,6,0,0,33.0,0.941795782694396,50.433575954087445,60.63758118121849,-17.545194084084027,-18.17266433406804,0.012863826667579929
3,0,0,918,65.359477124183,2,13.046873249910696,1,2854.9000000953674,-12.046873249910696,0,7,6,0,0,33.0,0.941795782694396,50.433575954087445,60.63758118121849,-4.618611489919509,-5.142580676667837,0.0016975553124264273
3,0,3,425,141.1764705882353,2,68.5984388693479,86,3179.0,17.401561130652098,0,8,6,0,0,33.0,0.941795782694396,50.433575954087445,60.63758118121849,13.011137110232312,16.035975610039426,0.005112444778575743
3,0,0,652,92.02453987730061,0,37.727982709047225,24,2073.100000023842,-13.727982709047225,0,9,6,0,0,33.0,0.941795782694396,50.433575954087445,60.63758118121849,-11.550667059338124,-12.369009938215473,0.003675529107323836
3,0,3,918,65.359477124183,1,13.046873249910696,0,2697.5,-13.046873249910696,0,10,6,0,0,33.0,0.941795782694396,50.433575954087445,60.63758118121849,-5.618611489919509,-6.220720418597665,0.002414322567321928
3,0,2,425,141.1764705882353,0,68.5984388693479,79,3717.600000023842,10.401561130652098,0,11,6,0,0,33.0,0.941795782694396,50.433575954087445,60.63758118121849,6.011137110232312,7.1128974078283544,0.0010427447862159337
3,0,1,599,100.1669449081803,0,43.84378078116181,32,1990.5,-11.843780781161811,0,12,6,0,0,33.0,0.941795782694396,50.433575954087445,60.63758118121849,-10.967611101053883,-11.783007237856788,0.0028656317790558637
3,0,2,652,92.02453987730061,1,37.727982709047225,47,2448.6999999284744,9.272017290952775,0,13,6,0,0,33.0,0.941795782694396,50.433575954087445,60.63758118121849,11.449332940661876,13.982772681182965,0.003111000338030508
3,0,1,463,129.58963282937364,2,62.42097125758927,52,2666.200000047684,-10.420971257589272,0,14,6,0,0,33.0,0.941795782694396,50.433575954087445,60.63758118121849,-13.497129013720468,-14.29726583294754,0.004865278539008261
3,0,4,302,198.67549668874173,1,93.24415345434716,100,3546.899999976158,6.755846545652844,0,15,6,0,0,33.0,0.941795782694396,50.433575954087445,60.63758118121849,-2.877993268108355,-3.236303007314385,0.0006964557860627715
3,0,1,652,92.02453987730061,0,37.727982709047225,25,2368.200000047684,-12.727982709047225,0,16,6,0,0,33.0,0.941795782694396,50.433575954087445,60.63758118121849,-10.550667059338124,-11.36155441678275,0.0030874875100346966
3,0,3,504,119.04761904761905,1,56.30039424560527,45,2838.3000000715256,-11.300394245605268,0,17,6,0,0,33.0,0.941795782694396,50.433575954087445,60.63758118121849,-13.074389304918867,-13.882119636678219,0.003983715672778702
3,0,5,302,198.67549668874173,1,93.24415345434716,95,2866.2999999523163,1.7558465456528438,0,18,6,0,0,33.0,0.941795782694396,50.433575954087445,60.63758118121849,-7.877993268108355,-8.611744356648872,0.00499688148676227
3,0,2,1000,60.0,2,6.875176187496734,0,3387.200000047684,-6.875176187496734,0,19,6,0,0,33.0,0.941795782694396,50.433575954087445,60.63758118121849,1.8661241430407784,2.1560779753837997,0.0001238067376013112
3,0,5,504,119.04761904761905,2,56.30039424560527,48,4437.799999952316,-8.300394245605268,0,20,6,0,0,33.0,0.941795782694396,50.433575954087445,60.63758118121849,-10.074389304918867,-10.877662043899972,0.002398935339577872
3,0,3,329,182.370820668693,1,87.06720173383901,92,3809.6999999284735,4.932798266160987,0,21,6,0,0,33.0,0.941795782694396,50.433575954087445,60.63758118121849,-3.3868850400127712,-3.7975563126459027,0.0007811810700120134
3,0,5,918,65.359477124183,1,13.046873249910696,8,2372.5,-5.046873249910696,0,22,6,0,0,33.0,0.941795782694396,50.433575954087445,60.63758118121849,2.381388510080491,2.7595505434345107,0.00020560979867974283
3,0,0,504,119.04761904761905,0,56.30039424560527,52,5573.399999976158,-4.300394245605268,0,23,6,0,0,33.0,0.941795782694396,50.433575954087445,60.63758118121849,-6.074389304918867,-6.708038833273357,0.0009077317454225148
3,0,5,774,77.51937984496124,2,25.354902613380577,18,2548.0,-7.3549026133805775,0,24,6,0,0,33.0,0.941795782694396,50.433575954087445,60.63758118121849,-2.5451940840840273,-2.867491353305981,0.00036663643010086615
3,0,4,918,65.359477124183,0,13.046873249910696,6,3441.6999999284744,-7.046873249910696,0,25,6,0,0,33.0,0.941795782694396,50.433575954087445,60.63758118121849,0.381388510080491,0.43691627873660727,2.3397185856128645e-06
3,0,5,425,141.1764705882353,0,68.5984388693479,84,5226.099999904633,15.401561130652098,0,26,6,0,0,33.0,0.941795782694396,50.433575954087445,60.63758118121849,11.011137110232312,13.41325945894442,0.0036359164842589635
3,0,4,504,119.04761904761905,0,56.30039424560527,49,3731.6999999284735,-7.300394245605268,0,27,6,0,0,33.0,0.941795782694396,50.433575954087445,60.63758118121849,-9.074389304918867,-9.853061141940943,0.0019595090642412737
3,0,2,329,182.370820668693,1,87.06720173383901,82,2479.4000000953674,-5.067201733839013,0,28,6,0,0,33.0,0.941795782694396,50.433575954087445,60.63758118121849,-13.386885040012771,-14.189195421412458,0.011504682992274197
3,0,4,774,77.51937984496124,1,25.354902613380577,8,4330.5,-17.354902613380577,0,29,6,0,0,33.0,0.941795782694396,50.433575954087445,60.63758118121849,-12.545194084084027,-13.359594639849336,0.006723200492414485
3,0,2,504,119.04761904761905,0,56.30039424560527,49,5192.5,-7.300394245605268,0,30,6,0,0,33.0,0.941795782694396,50.433575954087445,60.63758118121849,-9.074389304918867,-9.853061141940943,0.0019595090642412737
3,0,5,329,182.370820668693,2,87.06720173383901,100,1915.6000000238416,12.932798266160987,1,31,6,0,0,33.0,0.941795782694396,50.433575954087445,60.63758118121849,4.613114959987229,5.414755995342948,0.0012601504805160545
3,0,3,710,84.50704225352112,2,31.580629700998873,16,3930.600000023842,-15.580629700998873,1,32,6,0,0,33.0,0.941795782694396,50.433575954087445,60.63758118121849,-12.095454717835334,-12.913032607859595,0.004942352379681089
3,0,0,550,109.0909090909091,2,50.0,50,8163.700000047684,0.0,1,33,6,0,0,33.0,0.941795782694396,50.433575954087445,60.63758118121849,-0.43357595408744487,-0.4943937818642006,1.3121318636332645e-05
3,0,1,390,153.84615384615384,0,74.79787473312055,87,1970.3000000715256,12.202125266879449,1,34,6,0,0,33.0,0.941795782694396,50.433575954087445,60.63758118121849,6.492761200886861,7.7042269822366976,0.0015602318886625201
3,0,4,1000,60.0,2,6.875176187496734,0,1932.2999999523165,-6.875176187496734,1,35,6,0,0,33.0,0.941795782694396,50.433575954087445,60.63758118121849,1.8661241430407784,2.1560779753837997,0.0001238067376013112
3,0,2,774,77.51937984496124,0,25.354902613380577,15,3676.399999976158,-10.354902613380577,1,36,6,0,0,33.0,0.941795782694396,50.433575954087445,60.63758118121849,-5.545194084084027,-6.141984704825882,0.0014441492884725345
3,0,4,550,109.0909090909091,1,50.0,53,2781.099999904633,3.0,1,37,6,0,0,33.0,0.941795782694396,50.433575954087445,60.63758118121849,2.566424045912555,2.9771312123042697,0.00010282684876240966
3,0,2,843,71.17437722419929,0,19.194949373496982,13,2091.2999999523163,-6.194949373496982,1,38,6,0,0,33.0,0.941795782694396,50.433575954087445,60.63758118121849,-0.0747007909649966,-0.08535390255319626,1.8762166199201002e-05
3,0,1,774,77.51937984496124,2,25.354902613380577,2,2005.1000000238416,-23.354902613380577,1,39,6,0,0,33.0,0.941795782694396,50.433575954087445,60.63758118121849,-18.545194084084027,-19.10270547567826,0.014328939434133707
3,0,3,1000,60.0,2,6.875176187496734,0,2381.399999976158,-6.875176187496734,1,40,6,0,0,33.0,0.941795782694396,50.433575954087445,60.63758118121849,1.8661241430407784,2.1560779753837997,0.0001238067376013112
3,0,0,710,84.50704225352112,2,31.580629700998873,47,4684.5,15.419370299001127,1,41,6,0,0,33.0,0.941795782694396,50.433575954087445,60.63758118121849,18.904545282164666,24.12234448411029,0.010652494255177941
3,0,1,1000,60.0,2,6.875176187496734,0,2365.399999976158,-6.875176187496734,1,42,6,0,0,33.0,0.941795782694396,50.433575954087445,60.63758118121849,1.8661241430407784,2.1560779753837997,0.0001238067376013112
3,0,4,463,129.58963282937364,1,62.42097125758927,77,2523.9000000953674,14.579028742410728,1,43,6,0,0,33.0,0.941795782694396,50.433575954087445,60.63758118121849,11.502870986279532,14.052550633693594,0.003225666181217591
3,0,0,1000,60.0,0,6.875176187496734,9,3623.799999952316,2.1248238125032657,1,44,6,0,0,33.0,0.941795782694396,50.433575954087445,60.63758118121849,10.866124143040778,13.225416742245597,0.008260637629989055
3,0,2,550,109.0909090909091,1,50.0,84,3866.899999976158,34.0,1,45,6,0,0,33.0,0.941795782694396,50.433575954087445,60.63758118121849,33.566424045912555,46.77010047628102,0.023212002436413453
3,0,0,390,153.84615384615384,0,74.79787473312055,100,2731.5,25.20212526687945,1,46,6,0,0,33.0,0.941795782694396,50.433575954087445,60.63758118121849,19.49276120088686,24.95974114949468,0.014695762231003094
3,0,5,843,71.17437722419929,2,19.194949373496982,6,3752.700000047684,-13.194949373496982,1,47,6,0,0,33.0,0.941795782694396,50.433575954087445,60.63758118121849,-7.074700790964997,-7.768714136192863,0.0028974987660034856
3,0,0,329,182.370820668693,2,87.06720173383901,100,2289.0,12.932798266160987,1,48,6,0,0,33.0,0.941795782694396,50.433575954087445,60.63758118121849,4.613114959987229,5.414755995342948,0.0012601504805160545
3,0,1,504,119.04761904761905,2,56.30039424560527,50,6356.399999976158,-6.300394245605268,1,49,6,0,0,33.0,0.941795782694396,50.433575954087445,60.63758118121849,-8.074389304918867,-8.816680847381013,0.001564499706769848
3,0,2,302,198.67549668874173,0,93.24415345434716,100,2473.599999904633,6.755846545652844,1,50,6,0,0,33.0,0.941795782694396,50.433575954087445,60.63758118121849,-2.877993268108355,-3.236303007314385,0.0006964557860627715
3,0,5,599,100.1669449081803,1,43.84378078116181,48,3385.899999976158,4.156219218838189,1,51,6,0,0,33.0,0.941795782694396,50.433575954087445,60.63758118121849,5.032388898946117,5.921191340682381,0.000478085774759774
3,0,4,329,182.370820668693,2,87.06720173383901,100,2068.3000000715256,12.932798266160987,1,52,6,0,0,33.0,0.941795782694396,50.433575954087445,60.63758118121849,4.613114959987229,5.414755995342948,0.0012601504805160545
3,0,5,652,92.02453987730061,0,37.727982709047225,48,8285.0,10.272017290952775,1,53,6,0,0,33.0,0.941795782694396,50.433575954087445,60.63758118121849,12.449332940661876,15.293183228923057,0.003701179465137447
3,0,1,358,167.5977653631285,1,80.97360155738828,79,1689.899999976158,-1.9736015573882781,1,54,6,0,0,33.0,0.941795782694396,50.433575954087445,60.63758118121849,-8.996861532304393,-9.773135830582232,0.004209443327440843
3,0,3,463,129.58963282937364,0,62.42097125758927,52,3940.8000000715256,-10.420971257589272,1,55,6,0,0,33.0,0.941795782694396,50.433575954087445,60.63758118121849,-13.497129013720468,-14.29726583294754,0.004865278539008261
3,0,4,710,84.50704225352112,2,31.580629700998873,22,2617.6999999284744,-9.580629700998873,1,56,6,0,0,33.0,0.941795782694396,50.433575954087445,60.63758118121849,-6.095454717835334,-6.730500682284354,0.001348266307208087
3,0,3,302,198.67549668874173,0,93.24415345434716,100,2194.700000047684,6.755846545652844,1,57,6,0,0,33.0,0.941795782694396,50.433575954087445,60.63758118121849,-2.877993268108355,-3.236303007314385,0.0006964557860627715
3,0,2,390,153.84615384615384,1,74.79787473312055,50,7745.400000095367,-24.79787473312055,1,58,6,0,0,33.0,0.941795782694396,50.433575954087445,60.63758118121849,-30.50723879911314,-29.441479227140064,0.03728987928933383
3,0,3,599,100.1669449081803,0,43.84378078116181,48,2038.700000047684,4.156219218838189,1,59,6,0,0,33.0,0.941795782694396,50.433575954087445,60.63758118121849,5.032388898946117,5.921191340682381,0.000478085774759774
3,0,5,463,129.58963282937364,1,62.42097125758927,55,2549.899999976158,-7.420971257589272,1,60,6,0,0,33.0,0.941795782694396,50.433575954087445,60.63758118121849,-10.497129013720468,-11.307291749705657,0.002977444971287855
3,0,1,425,141.1764705882353,1,68.5984388693479,55,2230.099999904633,-13.598438869347902,2,61,6,0,0,33.0,0.941795782694396,50.433575954087445,60.63758118121849,-17.988862889767688,-18.58660689767799,0.010432998643416399
3,0,5,1000,60.0,0,6.875176187496734,4,3208.7999999523163,-2.8751761874967343,2,62,6,0,0,33.0,0.941795782694396,50.433575954087445,60.63758118121849,5.8661241430407784,6.935489777198948,0.002169349009478286
3,0,4,390,153.84615384615384,0,74.79787473312055,78,2929.100000023842,3.202125266879449,2,63,6,0,0,33.0,0.941795782694396,50.433575954087445,60.63758118121849,-2.5072387991131393,-2.825339694505118,0.0002917257554959686
3,0,0,599,100.1669449081803,1,43.84378078116181,48,6500.599999904633,4.156219218838189,2,64,6,0,0,33.0,0.941795782694396,50.433575954087445,60.63758118121849,5.032388898946117,5.921191340682381,0.000478085774759774
3,0,2,463,129.58963282937364,2,62.42097125758927,46,9607.799999952316,-16.420971257589272,2,65,6,0,0,33.0,0.941795782694396,50.433575954087445,60.63758118121849,-19.497129013720468,-19.978221493403712,0.01002455665290996
3,0,4,652,92.02453987730061,0,37.727982709047225,39,2240.399999976158,1.2720172909527747,2,66,6,0,0,33.0,0.941795782694396,50.433575954087445,60.63758118121849,3.4493329406618756,4.021691903118606,0.000233738889794939
3,0,0,425,141.1764705882353,1,68.5984388693479,73,1514.3000000715256,4.401561130652098,2,67,6,0,0,33.0,0.941795782694396,50.433575954087445,60.63758118121849,0.011137110232311898,0.01273162255990338,1.7340768908243554e-06
3,0,1,710,84.50704225352112,1,31.580629700998873,36,3117.899999976158,4.419370299001127,2,68,6,0,0,33.0,0.941795782694396,50.433575954087445,60.63758118121849,7.904545282164666,9.456467316734255,0.0017340451402335277
3,0,3,550,109.0909090909091,2,50.0,62,1363.399999976158,12.0,2,69,6,0,0,33.0,0.941795782694396,50.433575954087445,60.63758118121849,11.566424045912555,14.13543694623471,0.002644884228367975
3,0,0,358,167.5977653631285,0,80.97360155738828,99,2293.899999976158,18.026398442611722,2,70,6,0,0,33.0,0.941795782694396,50.433575954087445,60.63758118121849,11.003138467695607,13.402890292199995,0.005871334145415495
3,0,1,550,109.0909090909091,1,50.0,48,2189.2999999523163,-2.0,2,71,6,0,0,33.0,0.941795782694396,50.433575954087445,60.63758118121849,-2.433575954087445,-2.743480405049572,0.00016377511236962704
3,0,0,774,77.51937984496124,1,25.354902613380577,14,1659.600000023842,-11.354902613380577,2,72,6,0,0,33.0,0.941795782694396,50.433575954087445,60.63758118121849,-6.545194084084027,-7.208765322622993,0.0019613119289435513
3,0,2,599,100.1669449081803,2,43.84378078116181,47,1436.0,3.1562192188381886,2,73,6,0,0,33.0,0.941795782694396,50.433575954087445,60.63758118121849,4.032388898946117,4.717301895749382,0.00029422110700253823
3,0,4,358,167.5977653631285,0,80.97360155738828,90,3027.2999999523163,9.026398442611722,2,74,6,0,0,33.0,0.941795782694396,50.433575954087445,60.63758118121849,2.0031384676956066,2.3162010495958736,0.0001676363833272336
3,0,3,390,153.84615384615384,1,74.79787473312055,73,1853.0,-1.7978747331205511,2,75,6,0,0,33.0,0.941795782694396,50.433575954087445,60.63758118121849,-7.507238799113139,-8.223610981650902,0.0023535283056377062
3,0,0,843,71.17437722419929,1,19.194949373496982,10,2517.6999999284744,-9.194949373496982,2,76,6,0,0,33.0,0.941795782694396,50.433575954087445,60.63758118121849,-3.0747007909649966,-3.4536375896922746,0.0006525206449615327
3,0,5,390,153.84615384615384,2,74.79787473312055,87,1325.5,12.202125266879449,2,77,6,0,0,33.0,0.941795782694396,50.433575954087445,60.63758118121849,6.492761200886861,7.7042269822366976,0.0015602318886625201
3,0,2,710,84.50704225352112,2,31.580629700998873,33,3807.799999952316,1.4193702990011268,2,78,6,0,0,33.0,0.941795782694396,50.433575954087445,60.63758118121849,4.904545282164666,5.7665134639702424,0.0006175377864771448
3,0,5,358,167.5977653631285,0,80.97360155738828,93,1844.0,12.026398442611722,2,79,6,0,0,33.0,0.941795782694396,50.433575954087445,60.63758118121849,5.0031384676956066,5.88578132503669,0.0011678058990536844
3,0,1,843,71.17437722419929,1,19.194949373496982,18,2568.8000000715256,-1.194949373496982,2,80,6,0,0,33.0,0.941795782694396,50.433575954087445,60.63758118121849,4.925299209035003,5.791608254732624,0.0009624506292508066
3,0,5,550,109.0909090909091,0,50.0,50,5929.699999928474,0.0,2,81,6,0,0,33.0,0.941795782694396,50.433575954087445,60.63758118121849,-0.43357595408744487,-0.4943937818642006,1.3121318636332645e-05
3,0,1,329,182.370820668693,2,87.06720173383901,86,1338.7999999523165,-1.0672017338390134,2,82,6,0,0,33.0,0.941795782694396,50.433575954087445,60.63758118121849,-9.386885040012771,-10.174503586581233,0.005705653731983693
3,0,3,843,71.17437722419929,0,19.194949373496982,0,1465.600000023842,-19.194949373496982,2,83,6,0,0,33.0,0.941795782694396,50.433575954087445,60.63758118121849,-13.074700790964997,-13.882426266751459,0.009264894839049652
3,0,5,710,84.50704225352112,1,31.580629700998873,44,2598.600000023842,12.419370299001127,2,84,6,0,0,33.0,0.941795782694396,50.433575954087445,60.63758118121849,15.904545282164666,19.93798028461615,0.007468305979491127
3,0,3,358,167.5977653631285,2,80.97360155738828,92,1523.7999999523165,11.026398442611722,2,85,6,0,0,33.0,0.941795782694396,50.433575954087445,60.63758118121849,4.0031384676956066,4.682294346725723,0.0007342979414075004
3,0,4,843,71.17437722419929,1,19.194949373496982,7,1888.2999999523165,-12.194949373496982,2,86,6,0,0,33.0,0.941795782694396,50.433575954087445,60.63758118121849,-6.074700790964997,-6.708371007274436,0.0021862577911688354
3,0,3,652,92.02453987730061,1,37.727982709047225,42,5113.799999952316,4.272017290952775,2,87,6,0,0,33.0,0.941795782694396,50.433575954087445,60.63758118121849,6.449332940661876,7.6507728876184515,0.0009285095227541213
3,0,2,918,65.359477124183,1,13.046873249910696,3,1530.8000000715256,-10.046873249910696,2,88,6,0,0,33.0,0.941795782694396,50.433575954087445,60.63758118121849,-2.618611489919509,-2.9489739776155774,0.0006417449387627634
3,0,4,599,100.1669449081803,2,43.84378078116181,63,4493.199999928474,19.15621921883819,2,89,6,0,0,33.0,0.941795782694396,50.433575954087445,60.63758118121849,20.032388898946117,25.732934477670373,0.008565436479530177
3,0,2,358,167.5977653631285,2,80.97360155738828,89,1983.3000000715256,8.026398442611722,2,90,6,0,0,33.0,0.941795782694396,50.433575954087445,60.63758118121849,1.0031384676956066,1.1532855561979045,3.4482782893150786e-05
3,0,0,329,182.370820668693,0,87.06720173383901,99,3181.100000023842,11.932798266160987,3,91,6,0,0,33.0,0.941795782694396,50.433575954087445,60.63758118121849,3.6131149599872288,4.216622642831851,0.0007599709942155733
3,0,2,710,84.50704225352112,1,31.580629700998873,25,2180.6999999284744,-6.580629700998873,3,92,6,0,0,33.0,0.941795782694396,50.433575954087445,60.63758118121849,-3.0954547178353344,-3.476539318889186,0.00039709273903403556
3,0,3,329,182.370820668693,1,87.06720173383901,89,2281.399999976158,1.9327982661609866,3,93,6,0,0,33.0,0.941795782694396,50.433575954087445,60.63758118121849,-6.386885040012771,-7.0406956760080615,0.002677306716728241
3,0,0,918,65.359477124183,1,13.046873249910696,15,2733.600000023842,1.9531267500893037,3,94,6,0,0,33.0,0.941795782694396,50.433575954087445,60.63758118121849,9.381388510080491,11.319971629160003,0.00488315850834625
3,0,5,652,92.02453987730061,0,37.727982709047225,33,5407.5,-4.727982709047225,3,95,6,0,0,33.0,0.941795782694396,50.433575954087445,60.63758118121849,-2.5506670593381244,-2.873567917593529,0.00022732630034153614
3,0,1,329,182.370820668693,2,87.06720173383901,92,2520.899999976158,4.932798266160987,3,96,6,0,0,33.0,0.941795782694396,50.433575954087445,60.63758118121849,-3.3868850400127712,-3.7975563126459027,0.0007811810700120134
3,0,5,390,153.84615384615384,0,74.79787473312055,89,2124.8000000715256,14.202125266879449,3,97,6,0,0,33.0,0.941795782694396,50.433575954087445,60.63758118121849,8.49276120088686,10.194920019321751,0.002711602425519189
3,0,0,774,77.51937984496124,1,25.354902613380577,9,2140.6999999284744,-16.354902613380577,3,98,6,0,0,33.0,0.941795782694396,50.433575954087445,60.63758118121849,-11.545194084084027,-12.363527441501901,0.005732062788902088
3,0,1,463,129.58963282937364,2,62.42097125758927,49,14730.5,-13.420971257589272,3,99,6,0,0,33.0,0.941795782694396,50.433575954087445,60.63758118121849,-16.497129013720468,-17.18644307285447,0.007214315766215628
3,0,4,504,119.04761904761905,1,56.30039424560527,50,9288.200000047684,-6.300394245605268,3,100,6,0,0,33.0,0.941795782694396,50.433575954087445,60.63758118121849,-8.074389304918867,-8.816680847381013,0.001564499706769848
3,0,0,390,153.84615384615384,0,74.79787473312055,85,2092.200000047684,10.202125266879449,3,101,6,0,0,33.0,0.941795782694396,50.433575954087445,60.63758118121849,4.492761200886861,5.269830113830733,0.0007250360009119883
3,0,2,918,65.359477124183,0,13.046873249910696,7,1911.0,-6.046873249910696,3,102,6,0,0,33.0,0.941795782694396,50.433575954087445,60.63758118121849,1.381388510080491,1.591595984960945,4.102073594478815e-05
3,0,3,599,100.1669449081803,1,43.84378078116181,39,8551.699999928474,-4.843780781161811,3,103,6,0,0,33.0,0.941795782694396,50.433575954087445,60.63758118121849,-3.9676111010538833,-4.434059125815882,0.00042211797146821025
3,0,2,302,198.67549668874173,0,93.24415345434716,100,1552.600000023842,6.755846545652844,3,104,6,0,0,33.0,0.941795782694396,50.433575954087445,60.63758118121849,-2.877993268108355,-3.236303007314385,0.0006964557860627715
3,0,1,1000,60.0,1,6.875176187496734,0,7023.100000023842,-6.875176187496734,3,105,6,0,0,33.0,0.941795782694396,50.433575954087445,60.63758118121849,1.8661241430407784,2.1560779753837997,0.0001238067376013112
