subject,range,pitch,ioi,tempo,loudness,true_score,response,rt,error,block,trial,test_correct,test_incorrect,test_skipped,extreme_responses,pearsonr,intercept,slope,residual,cooks
1,0,4,918,1,1,13.04687,0,4321.299999952316,-13.04687,0,1,6,0,0,81.0,0.9003488741195169,54.542633393945195,65.33949053508697,-6.252663883358627,0.0025705043127452177
1,0,3,652,2,1,37.72798,24,3346.100000023842,-13.727980000000002,0,2,6,0,0,81.0,0.9003488741195169,54.542633393945195,65.33949053508697,-14.505686241372544,0.003251414787265756
1,0,2,1000,1,0,6.87518,0,2802.6999999284744,-6.87518,0,3,6,0,0,81.0,0.9003488741195169,54.542633393945195,65.33949053508697,1.8124469525417861,6.208188297336337e-05
1,0,1,652,2,1,37.72798,43,3357.5,5.272019999999998,0,4,6,0,0,81.0,0.9003488741195169,54.542633393945195,65.33949053508697,4.494313758627456,0.0001340578802316082
1,0,2,504,3,0,56.30039,55,3507.2999999523163,-1.3003900000000002,0,5,6,0,0,81.0,0.9003488741195169,54.542633393945195,65.33949053508697,-7.7759243975060315,0.0007228648170064025
1,0,1,1000,1,0,6.87518,8,3862.3000000715256,1.1248199999999997,0,6,6,0,0,81.0,0.9003488741195169,54.542633393945195,65.33949053508697,9.812446952541785,0.0018232919551404371
1,0,2,652,2,0,37.72798,44,2740.399999976158,6.272019999999998,0,7,6,0,0,81.0,0.9003488741195169,54.542633393945195,65.33949053508697,5.494313758627456,0.00023070078375747472
1,0,5,1000,1,1,6.87518,0,3268.5,-6.87518,0,8,6,0,0,81.0,0.9003488741195169,54.542633393945195,65.33949053508697,1.8124469525417861,6.208188297336337e-05
1,0,0,599,3,1,43.84378,49,8441.300000071526,5.156219999999998,0,9,6,0,0,81.0,0.9003488741195169,54.542633393945195,65.33949053508697,2.5022511536787704,2.7711049978489015e-05
1,0,3,390,4,1,74.79787,80,4266.0,5.202129999999997,0,10,6,0,0,81.0,0.9003488741195169,54.542633393945195,65.33949053508697,-6.94824342224527,0.0007503093058132662
1,0,0,843,1,2,19.19495,34,12750.0,14.805050000000001,0,11,6,0,0,81.0,0.9003488741195169,54.542633393945195,65.33949053508697,19.71309288292018,0.00767023879132686
1,0,4,710,2,0,31.58063,41,3886.899999976158,9.41937,0,12,6,0,0,81.0,0.9003488741195169,54.542633393945195,65.33949053508697,10.527612032331724,0.0012593289985379944
1,0,0,425,4,2,68.59844,70,2248.100000023842,1.4015600000000035,0,13,6,0,0,81.0,0.9003488741195169,54.542633393945195,65.33949053508697,-8.8468838033682,0.0011165842115057778
1,0,2,302,5,1,93.24415,100,2378.200000047684,6.755849999999995,0,14,6,0,0,81.0,0.9003488741195169,54.542633393945195,65.33949053508697,-11.053652500508477,0.0033474950251980015
1,0,0,710,2,1,31.58063,26,2782.3000000715256,-5.580629999999999,0,15,6,0,0,81.0,0.9003488741195169,54.542633393945195,65.33949053508697,-4.472387967668276,0.0005957728653959162
1,0,4,463,4,1,62.42097,74,2653.399999976158,11.579030000000003,0,16,6,0,0,81.0,0.9003488741195169,54.542633393945195,65.33949053508697,3.2257679276179516,0.00014686002879670153
1,0,0,302,5,0,93.24415,100,4091.700000047684,6.755849999999995,0,17,6,0,0,81.0,0.9003488741195169,54.542633393945195,65.33949053508697,-11.053652500508477,0.0033474950251980015
1,0,5,463,4,0,62.42097,78,4042.0,15.579030000000003,0,18,6,0,0,81.0,0.9003488741195169,54.542633393945195,65.33949053508697,7.225767927617952,0.0007055984361851767
1,0,1,504,3,1,56.30039,100,3367.1999999284744,43.69961,0,19,6,0,0,81.0,0.9003488741195169,54.542633393945195,65.33949053508697,37.22407560249397,0.015475845321602458
1,0,5,302,5,2,93.24415,100,2611.600000023842,6.755849999999995,0,20,6,0,0,81.0,0.9003488741195169,54.542633393945195,65.33949053508697,-11.053652500508477,0.0033474950251980015
1,0,1,425,4,0,68.59844,81,2438.5,12.401560000000003,0,21,6,0,0,81.0,0.9003488741195169,54.542633393945195,65.33949053508697,2.1531161966317995,0.00011111464921802673
1,0,5,599,3,2,43.84378,50,4646.0,6.156219999999998,0,22,6,0,0,81.0,0.9003488741195169,54.542633393945195,65.33949053508697,3.5022511536787704,7.440583106130958e-05
1,0,2,463,4,0,62.42097,58,4367.0,-4.420969999999997,0,23,6,0,0,81.0,0.9003488741195169,54.542633393945195,65.33949053508697,-12.774232072382048,0.0020847901067035527
1,0,3,599,3,1,43.84378,50,4134.5,6.156219999999998,0,24,6,0,0,81.0,0.9003488741195169,54.542633393945195,65.33949053508697,3.5022511536787704,7.440583106130958e-05
1,0,4,358,5,2,80.9736,100,4923.899999976158,19.026399999999995,0,25,6,0,0,81.0,0.9003488741195169,54.542633393945195,65.33949053508697,4.981379690124271,0.0009719557662622939
1,0,3,918,1,1,13.04687,33,3043.5,19.95313,0,26,6,0,0,81.0,0.9003488741195169,54.542633393945195,65.33949053508697,26.74733611664137,0.018521045878696723
1,0,1,329,5,2,87.0672,100,2953.5,12.9328,0,27,6,0,0,81.0,0.9003488741195169,54.542633393945195,65.33949053508697,-2.9816749309518826,6.607228106709581e-05
1,0,5,652,2,1,37.72798,54,6807.0,16.272019999999998,0,28,6,0,0,81.0,0.9003488741195169,54.542633393945195,65.33949053508697,15.494313758627456,0.0026310585772867114
1,0,3,302,5,0,93.24415,100,2294.599999904633,6.755849999999995,0,29,6,0,0,81.0,0.9003488741195169,54.542633393945195,65.33949053508697,-11.053652500508477,0.0033474950251980015
1,0,4,599,3,2,43.84378,48,6816.799999952316,4.156219999999998,0,30,6,0,0,81.0,0.9003488741195169,54.542633393945195,65.33949053508697,1.5022511536787704,3.619033478430418e-06
1,0,4,1000,1,0,6.87518,1,3176.399999976158,-5.87518,1,31,6,0,0,81.0,0.9003488741195169,54.542633393945195,65.33949053508697,2.8124469525417863,2.423632947024399e-06
1,0,3,425,4,2,68.59844,100,2855.5,31.401560000000003,1,32,6,0,0,81.0,0.9003488741195169,54.542633393945195,65.33949053508697,21.1531161966318,0.007476338525057568
1,0,4,774,2,1,25.3549,42,3893.5,16.6451,1,33,6,0,0,81.0,0.9003488741195169,54.542633393945195,65.33949053508697,19.663328754641128,0.006273274615422353
1,0,0,329,5,1,87.0672,100,2320.600000023842,12.9328,1,34,6,0,0,81.0,0.9003488741195169,54.542633393945195,65.33949053508697,-2.9816749309518826,6.607228106709581e-05
1,0,3,843,1,2,19.19495,0,3829.0,-19.19495,1,35,6,0,0,81.0,0.9003488741195169,54.542633393945195,65.33949053508697,-14.28690711707982,0.007044418032772633
1,0,4,329,5,1,87.0672,100,2868.600000023842,12.9328,1,36,6,0,0,81.0,0.9003488741195169,54.542633393945195,65.33949053508697,-2.9816749309518826,6.607228106709581e-05
1,0,1,710,2,0,31.58063,28,2198.899999976158,-3.5806299999999993,1,37,6,0,0,81.0,0.9003488741195169,54.542633393945195,65.33949053508697,-2.4723879676682756,0.00026969503348884996
1,0,5,329,5,1,87.0672,100,2547.899999976158,12.9328,1,38,6,0,0,81.0,0.9003488741195169,54.542633393945195,65.33949053508697,-2.9816749309518826,6.607228106709581e-05
1,0,3,774,2,0,25.3549,14,4001.899999976158,-11.3549,1,39,6,0,0,81.0,0.9003488741195169,54.542633393945195,65.33949053508697,-8.336671245358872,0.002146918832253485
1,0,1,358,5,1,80.9736,100,2520.899999976158,19.026399999999995,1,40,6,0,0,81.0,0.9003488741195169,54.542633393945195,65.33949053508697,4.981379690124271,0.0009719557662622939
1,0,5,843,1,0,19.19495,0,2421.0,-19.19495,1,41,6,0,0,81.0,0.9003488741195169,54.542633393945195,65.33949053508697,-14.28690711707982,0.007044418032772633
1,0,0,504,3,2,56.30039,50,5097.5,-6.30039,1,42,6,0,0,81.0,0.9003488741195169,54.542633393945195,65.33949053508697,-12.775924397506031,0.001909334639450833
1,0,2,774,2,1,25.3549,50,3989.3000000715256,24.6451,1,43,6,0,0,81.0,0.9003488741195169,54.542633393945195,65.33949053508697,27.663328754641128,0.013241623303326074
1,0,4,504,3,0,56.30039,73,1889.8000000715256,16.69961,1,44,6,0,0,81.0,0.9003488741195169,54.542633393945195,65.33949053508697,10.224075602493969,0.0011309158950201046
1,0,0,463,4,0,62.42097,52,3198.0,-10.420969999999997,1,45,6,0,0,81.0,0.9003488741195169,54.542633393945195,65.33949053508697,-18.77423207238205,0.004532828415246183
1,0,1,843,1,1,19.19495,0,2826.600000023842,-19.19495,1,46,6,0,0,81.0,0.9003488741195169,54.542633393945195,65.33949053508697,-14.28690711707982,0.007044418032772633
1,0,5,710,2,2,31.58063,25,4598.200000047684,-6.580629999999999,1,47,6,0,0,81.0,0.9003488741195169,54.542633393945195,65.33949053508697,-5.472387967668276,0.0008066447024639889
1,0,0,918,1,0,13.04687,0,2706.0,-13.04687,1,48,6,0,0,81.0,0.9003488741195169,54.542633393945195,65.33949053508697,-6.252663883358627,0.0025705043127452177
1,0,1,599,3,0,43.84378,49,4359.400000095367,5.156219999999998,1,49,6,0,0,81.0,0.9003488741195169,54.542633393945195,65.33949053508697,2.5022511536787704,2.7711049978489015e-05
1,0,2,425,4,1,68.59844,100,2335.0,31.401560000000003,1,50,6,0,0,81.0,0.9003488741195169,54.542633393945195,65.33949053508697,21.1531161966318,0.007476338525057568
1,0,3,550,3,0,50.0,50,3850.1999999284735,0.0,1,51,6,0,0,81.0,0.9003488741195169,54.542633393945195,65.33949053508697,-4.542633393945195,0.00028139461098493747
1,0,2,918,1,1,13.04687,23,1851.0,9.95313,1,52,6,0,0,81.0,0.9003488741195169,54.542633393945195,65.33949053508697,16.74733611664137,0.006318398614581634
1,0,0,652,2,0,37.72798,46,1762.100000023842,8.272019999999998,1,53,6,0,0,81.0,0.9003488741195169,54.542633393945195,65.33949053508697,7.494313758627456,0.0005022008867148752
1,0,2,329,5,2,87.0672,100,3474.100000023842,12.9328,1,54,6,0,0,81.0,0.9003488741195169,54.542633393945195,65.33949053508697,-2.9816749309518826,6.607228106709581e-05
1,0,1,463,4,1,62.42097,100,4401.900000095367,37.57903,1,55,6,0,0,81.0,0.9003488741195169,54.542633393945195,65.33949053508697,29.22576792761795,0.011237689303907885
1,0,3,358,5,1,80.9736,100,2340.0,19.026399999999995,1,56,6,0,0,81.0,0.9003488741195169,54.542633393945195,65.33949053508697,4.981379690124271,0.0009719557662622939
1,0,5,550,3,0,50.0,52,4086.100000023842,2.0,1,57,6,0,0,81.0,0.9003488741195169,54.542633393945195,65.33949053508697,-2.542633393945195,0.00010463826783436727
1,0,4,390,4,2,74.79787,100,5485.299999952316,25.202129999999997,1,58,6,0,0,81.0,0.9003488741195169,54.542633393945195,65.33949053508697,13.05175657775473,0.0038820347858902035
1,0,2,599,3,2,43.84378,49,5868.399999976158,5.156219999999998,1,59,6,0,0,81.0,0.9003488741195169,54.542633393945195,65.33949053508697,2.5022511536787704,2.7711049978489015e-05
1,0,5,425,4,2,68.59844,100,1954.700000047684,31.401560000000003,1,60,6,0,0,81.0,0.9003488741195169,54.542633393945195,65.33949053508697,21.1531161966318,0.007476338525057568
1,0,0,390,4,1,74.79787,100,2109.399999976158,25.202129999999997,2,61,6,0,0,81.0,0.9003488741195169,54.542633393945195,65.33949053508697,13.05175657775473,0.0038820347858902035
1,0,4,302,5,0,93.24415,100,1891.6000000238416,6.755849999999995,2,62,6,0,0,81.0,0.9003488741195169,54.542633393945195,65.33949053508697,-11.053652500508477,0.0033474950251980015
1,0,5,918,1,2,13.04687,0,2154.200000047684,-13.04687,2,63,6,0,0,81.0,0.9003488741195169,54.542633393945195,65.33949053508697,-6.252663883358627,0.0025705043127452177
1,0,4,425,4,0,68.59844,100,2125.5,31.401560000000003,2,64,6,0,0,81.0,0.9003488741195169,54.542633393945195,65.33949053508697,21.1531161966318,0.007476338525057568
1,0,3,329,5,2,87.0672,100,1775.5999999046326,12.9328,2,65,6,0,0,81.0,0.9003488741195169,54.542633393945195,65.33949053508697,-2.9816749309518826,6.607228106709581e-05
1,0,4,843,1,2,19.19495,15,4969.100000023842,-4.194949999999999,2,66,6,0,0,81.0,0.9003488741195169,54.542633393945195,65.33949053508697,0.7130928829201792,6.830103882914576e-05
1,0,1,390,4,2,74.79787,90,2880.399999976158,15.202129999999997,2,67,6,0,0,81.0,0.9003488741195169,54.542633393945195,65.33949053508697,3.0517565777547304,0.0003047503877060217
1,0,5,358,5,0,80.9736,100,2917.600000023842,19.026399999999995,2,68,6,0,0,81.0,0.9003488741195169,54.542633393945195,65.33949053508697,4.981379690124271,0.0009719557662622939
1,0,3,504,3,2,56.30039,48,5643.0,-8.30039,2,69,6,0,0,81.0,0.9003488741195169,54.542633393945195,65.33949053508697,-14.775924397506031,0.002542161201625202
1,0,5,390,4,1,74.79787,90,4473.300000071526,15.202129999999997,2,70,6,0,0,81.0,0.9003488741195169,54.542633393945195,65.33949053508697,3.0517565777547304,0.0003047503877060217
1,0,1,918,1,2,13.04687,12,7060.700000047684,-1.0468700000000002,2,71,6,0,0,81.0,0.9003488741195169,54.542633393945195,65.33949053508697,5.747336116641373,0.00029667622576799393
1,0,5,774,2,0,25.3549,7,4645.799999952316,-18.3549,2,72,6,0,0,81.0,0.9003488741195169,54.542633393945195,65.33949053508697,-15.336671245358872,0.006040331704914708
1,0,4,550,3,1,50.0,51,2364.2999999523163,1.0,2,73,6,0,0,81.0,0.9003488741195169,54.542633393945195,65.33949053508697,-3.542633393945195,0.00018230542926228998
1,0,0,774,2,2,25.3549,0,3968.600000023842,-25.3549,2,74,6,0,0,81.0,0.9003488741195169,54.542633393945195,65.33949053508697,-22.336671245358872,0.011903745304957308
1,0,5,504,3,1,56.30039,50,4378.200000047684,-6.30039,2,75,6,0,0,81.0,0.9003488741195169,54.542633393945195,65.33949053508697,-12.775924397506031,0.001909334639450833
1,0,4,652,2,2,37.72798,0,3010.2999999523163,-37.72798,2,76,6,0,0,81.0,0.9003488741195169,54.542633393945195,65.33949053508697,-38.505686241372544,0.020641987670873184
1,0,0,550,3,0,50.0,47,3811.0,-3.0,2,77,6,0,0,81.0,0.9003488741195169,54.542633393945195,65.33949053508697,-7.542633393945195,0.0007071942779212276
1,0,2,358,5,0,80.9736,100,1575.8000000715256,19.026399999999995,2,78,6,0,0,81.0,0.9003488741195169,54.542633393945195,65.33949053508697,4.981379690124271,0.0009719557662622939
1,0,1,550,3,2,50.0,48,2463.0,-2.0,2,79,6,0,0,81.0,0.9003488741195169,54.542633393945195,65.33949053508697,-6.542633393945195,0.0005438390353144062
1,0,2,710,2,2,31.58063,1,2336.5,-30.58063,2,80,6,0,0,81.0,0.9003488741195169,54.542633393945195,65.33949053508697,-29.472387967668276,0.015434153015005659
1,0,0,358,5,2,80.9736,100,1444.5,19.026399999999995,2,81,6,0,0,81.0,0.9003488741195169,54.542633393945195,65.33949053508697,4.981379690124271,0.0009719557662622939
1,0,2,550,3,1,50.0,47,2941.899999976158,-3.0,2,82,6,0,0,81.0,0.9003488741195169,54.542633393945195,65.33949053508697,-7.542633393945195,0.0007071942779212276
1,0,3,710,2,2,31.58063,6,1447.600000023842,-25.58063,2,83,6,0,0,81.0,0.9003488741195169,54.542633393945195,65.33949053508697,-24.472387967668276,0.01087204628126572
1,0,2,843,1,2,19.19495,47,3420.899999976158,27.80505,2,84,6,0,0,81.0,0.9003488741195169,54.542633393945195,65.33949053508697,32.71309288292018,0.023457252990994038
1,0,1,774,2,2,25.3549,22,5620.299999952316,-3.3549000000000007,2,85,6,0,0,81.0,0.9003488741195169,54.542633393945195,65.33949053508697,-0.33667124535887183,0.00010954990927091565
1,0,0,1000,1,1,6.87518,21,2281.7999999523163,14.12482,2,86,6,0,0,81.0,0.9003488741195169,54.542633393945195,65.33949053508697,22.812446952541787,0.015597829175253642
1,0,2,390,4,2,74.79787,100,1718.100000023842,25.202129999999997,2,87,6,0,0,81.0,0.9003488741195169,54.542633393945195,65.33949053508697,13.05175657775473,0.0038820347858902035
1,0,3,1000,1,0,6.87518,0,2622.0,-6.87518,2,88,6,0,0,81.0,0.9003488741195169,54.542633393945195,65.33949053508697,1.8124469525417861,6.208188297336337e-05
1,0,1,302,5,0,93.24415,99,3104.200000047684,5.755849999999995,2,89,6,0,0,81.0,0.9003488741195169,54.542633393945195,65.33949053508697,-12.053652500508477,0.00411881610536728
1,0,3,463,4,0,62.42097,57,8136.0,-5.420969999999997,2,90,6,0,0,81.0,0.9003488741195169,54.542633393945195,65.33949053508697,-13.774232072382048,0.0024275951835315834
1,0,4,652,2,1,37.72798,46,1973.0,8.272019999999998,3,91,6,0,0,81.0,0.9003488741195169,54.542633393945195,65.33949053508697,7.494313758627456,0.0005022008867148752
1,0,2,1000,1,1,6.87518,0,2719.2999999523163,-6.87518,3,92,6,0,0,81.0,0.9003488741195169,54.542633393945195,65.33949053508697,1.8124469525417861,6.208188297336337e-05
1,0,5,652,2,0,37.72798,45,3469.5,7.272019999999998,3,93,6,0,0,81.0,0.9003488741195169,54.542633393945195,65.33949053508697,6.494313758627456,0.0003534151192518971
1,0,2,599,3,0,43.84378,46,2224.700000047684,2.1562199999999976,3,94,6,0,0,81.0,0.9003488741195169,54.542633393945195,65.33949053508697,-0.4977488463212296,2.3243294226599164e-05
1,0,1,843,1,1,19.19495,0,3843.1999999284735,-19.19495,3,95,6,0,0,81.0,0.9003488741195169,54.542633393945195,65.33949053508697,-14.28690711707982,0.007044418032772633
1,0,4,302,5,2,93.24415,100,1922.399999976158,6.755849999999995,3,96,6,0,0,81.0,0.9003488741195169,54.542633393945195,65.33949053508697,-11.053652500508477,0.0033474950251980015
1,0,3,390,4,0,74.79787,100,1724.7999999523165,25.202129999999997,3,97,6,0,0,81.0,0.9003488741195169,54.542633393945195,65.33949053508697,13.05175657775473,0.0038820347858902035
1,0,4,550,3,2,50.0,47,16972.699999928474,-3.0,3,98,6,0,0,81.0,0.9003488741195169,54.542633393945195,65.33949053508697,-7.542633393945195,0.0007071942779212276
1,0,2,390,4,1,74.79787,47,9374.700000047684,-27.797870000000003,3,99,6,0,0,81.0,0.9003488741195169,54.542633393945195,65.33949053508697,-39.94824342224527,0.03076272706465484
1,0,1,652,2,0,37.72798,7,4678.200000047684,-30.727980000000002,3,100,6,0,0,81.0,0.9003488741195169,54.542633393945195,65.33949053508697,-31.505686241372544,0.014018487044358612
1,0,5,390,4,0,74.79787,100,3724.299999952316,25.202129999999997,3,101,6,0,0,81.0,0.9003488741195169,54.542633393945195,65.33949053508697,13.05175657775473,0.0038820347858902035
1,0,2,302,5,0,93.24415,100,5367.600000023842,6.755849999999995,3,102,6,0,0,81.0,0.9003488741195169,54.542633393945195,65.33949053508697,-11.053652500508477,0.0033474950251980015
1,0,1,463,4,1,62.42097,53,3596.399999976158,-9.420969999999997,3,103,6,0,0,81.0,0.9003488741195169,54.542633393945195,65.33949053508697,-17.77423207238205,0.004059620722560002
1,0,0,302,5,0,93.24415,100,2829.200000047684,6.755849999999995,3,104,6,0,0,81.0,0.9003488741195169,54.542633393945195,65.33949053508697,-11.053652500508477,0.0033474950251980015
1,0,4,425,4,2,68.59844,65,2763.2999999523163,-3.5984399999999965,3,105,6,0,0,81.0,0.9003488741195169,54.542633393945195,65.33949053508697,-13.8468838033682,0.0028510816593425034
1,0,1,599,3,1,43.84378,0,3450.6999999284744,-43.84378,3,106,6,0,0,81.0,0.9003488741195169,54.542633393945195,65.33949053508697,-46.49774884632123,0.025428053390803698
1,0,0,652,2,2,37.72798,37,2423.3000000715256,-0.7279800000000023,3,107,6,0,0,81.0,0.9003488741195169,54.542633393945195,65.33949053508697,-1.505686241372544,0.00010170053041608211
1,0,3,843,1,2,19.19495,2,2535.3000000715256,-17.19495,3,108,6,0,0,81.0,0.9003488741195169,54.542633393945195,65.33949053508697,-12.28690711707982,0.0054526635771836585
1,0,0,550,3,1,50.0,48,3601.600000023842,-2.0,3,109,6,0,0,81.0,0.9003488741195169,54.542633393945195,65.33949053508697,-6.542633393945195,0.0005438390353144062
1,0,4,1000,1,2,6.87518,0,1726.600000023842,-6.87518,3,110,6,0,0,81.0,0.9003488741195169,54.542633393945195,65.33949053508697,1.8124469525417861,6.208188297336337e-05
1,0,0,390,4,2,74.79787,100,2691.100000023842,25.202129999999997,3,111,6,0,0,81.0,0.9003488741195169,54.542633393945195,65.33949053508697,13.05175657775473,0.0038820347858902035
1,0,5,550,3,0,50.0,100,3569.5,50.0,3,112,6,0,0,81.0,0.9003488741195169,54.542633393945195,65.33949053508697,45.457366606054805,0.021568910385890254
1,0,1,302,5,0,93.24415,100,2515.0,6.755849999999995,3,113,6,0,0,81.0,0.9003488741195169,54.542633393945195,65.33949053508697,-11.053652500508477,0.0033474950251980015
1,0,2,774,2,0,25.3549,48,2842.1999999284744,22.6451,3,114,6,0,0,81.0,0.9003488741195169,54.542633393945195,65.33949053508697,25.663328754641128,0.011258311552487117
1,0,5,329,5,0,87.0672,100,1760.5,12.9328,3,115,6,0,0,81.0,0.9003488741195169,54.542633393945195,65.33949053508697,-2.9816749309518826,6.607228106709581e-05
1,0,3,504,3,2,56.30039,53,3189.700000047684,-3.30039,3,116,6,0,0,81.0,0.9003488741195169,54.542633393945195,65.33949053508697,-9.775924397506031,0.0011296361888999188
1,0,0,918,1,1,13.04687,48,5886.0,34.95313,3,117,6,0,0,81.0,0.9003488741195169,54.542633393945195,65.33949053508697,41.74733611664137,0.04883993495946832
1,0,3,358,5,0,80.9736,100,2756.3000000715256,19.026399999999995,3,118,6,0,0,81.0,0.9003488741195169,54.542633393945195,65.33949053508697,4.981379690124271,0.0009719557662622939
1,0,5,843,1,1,19.19495,0,3467.899999976158,-19.19495,3,119,6,0,0,81.0,0.9003488741195169,54.542633393945195,65.33949053508697,-14.28690711707982,0.007044418032772633
1,0,3,652,2,2,37.72798,48,2150.7999999523163,10.272019999999998,3,120,6,0,0,81.0,0.9003488741195169,54.542633393945195,65.33949053508697,9.494313758627456,0.000877986717546499
1,0,1,710,2,1,31.58063,0,2237.2999999523163,-31.58063,4,121,6,0,0,81.0,0.9003488741195169,54.542633393945195,65.33949053508697,-30.472387967668276,0.016442240203982723
1,0,2,918,1,2,13.04687,47,3036.399999976158,33.95313,4,122,6,0,0,81.0,0.9003488741195169,54.542633393945195,65.33949053508697,40.74733611664137,0.046370118741858514
1,0,0,463,4,1,62.42097,100,1433.2000000476835,37.57903,4,123,6,0,0,81.0,0.9003488741195169,54.542633393945195,65.33949053508697,29.22576792761795,0.011237689303907885
1,0,3,302,5,1,93.24415,100,1573.2000000476835,6.755849999999995,4,124,6,0,0,81.0,0.9003488741195169,54.542633393945195,65.33949053508697,-11.053652500508477,0.0033474950251980015
1,0,2,463,4,0,62.42097,92,2492.0,29.579030000000003,4,125,6,0,0,81.0,0.9003488741195169,54.542633393945195,65.33949053508697,21.22576792761795,0.0059473287816701826
1,0,4,329,5,0,87.0672,99,2388.5,11.9328,4,126,6,0,0,81.0,0.9003488741195169,54.542633393945195,65.33949053508697,-3.9816749309518826,0.00019006701406331722
1,0,5,918,1,2,13.04687,0,2567.600000023842,-13.04687,4,127,6,0,0,81.0,0.9003488741195169,54.542633393945195,65.33949053508697,-6.252663883358627,0.0025705043127452177
1,0,4,710,2,2,31.58063,3,2615.399999976158,-28.58063,4,128,6,0,0,81.0,0.9003488741195169,54.542633393945195,65.33949053508697,-27.472387967668276,0.013513644479280605
1,0,0,843,1,2,19.19495,48,3905.200000047684,28.80505,4,129,6,0,0,81.0,0.9003488741195169,54.542633393945195,65.33949053508697,33.71309288292018,0.025027887826463993
1,0,4,599,3,1,43.84378,47,4912.600000023842,3.1562199999999976,4,130,6,0,0,81.0,0.9003488741195169,54.542633393945195,65.33949053508697,0.5022511536787704,2.129781561133799e-06
1,0,3,918,1,0,13.04687,48,3801.3000000715256,34.95313,4,131,6,0,0,81.0,0.9003488741195169,54.542633393945195,65.33949053508697,41.74733611664137,0.04883993495946832
1,0,5,599,3,1,43.84378,48,3809.400000095368,4.156219999999998,4,132,6,0,0,81.0,0.9003488741195169,54.542633393945195,65.33949053508697,1.5022511536787704,3.619033478430418e-06
1,0,4,918,1,0,13.04687,0,2898.899999976158,-13.04687,4,133,6,0,0,81.0,0.9003488741195169,54.542633393945195,65.33949053508697,-6.252663883358627,0.0025705043127452177
1,0,1,504,3,0,56.30039,54,4232.400000095367,-2.30039,4,134,6,0,0,81.0,0.9003488741195169,54.542633393945195,65.33949053508697,-8.775924397506031,0.000914947743439118
1,0,0,358,5,1,80.9736,99,8449.699999928474,18.026399999999995,4,135,6,0,0,81.0,0.9003488741195169,54.542633393945195,65.33949053508697,3.981379690124271,0.0006827104176298177
1,0,1,1000,1,0,6.87518,0,2334.599999904633,-6.87518,4,136,6,0,0,81.0,0.9003488741195169,54.542633393945195,65.33949053508697,1.8124469525417861,6.208188297336337e-05
1,0,5,358,5,1,80.9736,100,2082.399999976158,19.026399999999995,4,137,6,0,0,81.0,0.9003488741195169,54.542633393945195,65.33949053508697,4.981379690124271,0.0009719557662622939
1,0,2,710,2,2,31.58063,39,7084.200000047684,7.419370000000001,4,138,6,0,0,81.0,0.9003488741195169,54.542633393945195,65.33949053508697,8.527612032331724,0.0007563028644597074
1,0,1,329,5,2,87.0672,100,1859.1999999284744,12.9328,4,139,6,0,0,81.0,0.9003488741195169,54.542633393945195,65.33949053508697,-2.9816749309518826,6.607228106709581e-05
1,0,3,710,2,1,31.58063,0,3671.099999904633,-31.58063,4,140,6,0,0,81.0,0.9003488741195169,54.542633393945195,65.33949053508697,-30.472387967668276,0.016442240203982723
1,0,1,425,4,2,68.59844,100,1809.200000047684,31.401560000000003,4,141,6,0,0,81.0,0.9003488741195169,54.542633393945195,65.33949053508697,21.1531161966318,0.007476338525057568
1,0,0,599,3,0,43.84378,48,2580.599999904633,4.156219999999998,4,142,6,0,0,81.0,0.9003488741195169,54.542633393945195,65.33949053508697,1.5022511536787704,3.619033478430418e-06
1,0,2,329,5,2,87.0672,100,1759.899999976158,12.9328,4,143,6,0,0,81.0,0.9003488741195169,54.542633393945195,65.33949053508697,-2.9816749309518826,6.607228106709581e-05
1,0,0,710,2,1,31.58063,48,2359.200000047684,16.41937,4,144,6,0,0,81.0,0.9003488741195169,54.542633393945195,65.33949053508697,17.527612032331724,0.0040244118112173315
1,0,3,463,4,1,62.42097,53,8297.599999904633,-9.420969999999997,4,145,6,0,0,81.0,0.9003488741195169,54.542633393945195,65.33949053508697,-17.77423207238205,0.004059620722560002
1,0,5,774,2,2,25.3549,53,3465.399999976158,27.6451,4,146,6,0,0,81.0,0.9003488741195169,54.542633393945195,65.33949053508697,30.663328754641128,0.01651812165316329
1,0,3,599,3,0,43.84378,46,2750.2999999523163,2.1562199999999976,4,147,6,0,0,81.0,0.9003488741195169,54.542633393945195,65.33949053508697,-0.4977488463212296,2.3243294226599164e-05
1,0,5,463,4,1,62.42097,94,6232.199999928474,31.579030000000003,4,148,6,0,0,81.0,0.9003488741195169,54.542633393945195,65.33949053508697,23.22576792761795,0.00711343577319983
1,0,2,550,3,1,50.0,46,5175.5,-4.0,4,149,6,0,0,81.0,0.9003488741195169,54.542633393945195,65.33949053508697,-8.542633393945195,0.0008919715408227737
1,0,4,463,4,1,62.42097,58,3634.600000023842,-4.420969999999997,4,150,6,0,0,81.0,0.9003488741195169,54.542633393945195,65.33949053508697,-12.774232072382048,0.0020847901067035527
1,0,2,358,5,1,80.9736,100,1736.600000023842,19.026399999999995,5,151,6,0,0,81.0,0.9003488741195169,54.542633393945195,65.33949053508697,4.981379690124271,0.0009719557662622939
1,0,0,425,4,0,68.59844,100,2353.2999999523163,31.401560000000003,5,152,6,0,0,81.0,0.9003488741195169,54.542633393945195,65.33949053508697,21.1531161966318,0.007476338525057568
1,0,5,710,2,1,31.58063,48,1909.399999976158,16.41937,5,153,6,0,0,81.0,0.9003488741195169,54.542633393945195,65.33949053508697,17.527612032331724,0.0040244118112173315
1,0,3,550,3,1,50.0,47,2298.8000000715256,-3.0,5,154,6,0,0,81.0,0.9003488741195169,54.542633393945195,65.33949053508697,-7.542633393945195,0.0007071942779212276
1,0,1,774,2,2,25.3549,0,2596.3000000715256,-25.3549,5,155,6,0,0,81.0,0.9003488741195169,54.542633393945195,65.33949053508697,-22.336671245358872,0.011903745304957308
1,0,0,504,3,2,56.30039,47,4117.300000071526,-9.30039,5,156,6,0,0,81.0,0.9003488741195169,54.542633393945195,65.33949053508697,-15.775924397506031,0.0028924827612545148
1,0,1,918,1,2,13.04687,0,2301.200000047684,-13.04687,5,157,6,0,0,81.0,0.9003488741195169,54.542633393945195,65.33949053508697,-6.252663883358627,0.0025705043127452177
1,0,0,774,2,0,25.3549,6,2088.1999999284744,-19.3549,5,158,6,0,0,81.0,0.9003488741195169,54.542633393945195,65.33949053508697,-16.336671245358872,0.006757349929774994
1,0,2,425,4,2,68.59844,100,1609.4000000953674,31.401560000000003,5,159,6,0,0,81.0,0.9003488741195169,54.542633393945195,65.33949053508697,21.1531161966318,0.007476338525057568
1,0,4,774,2,0,25.3549,43,2026.8000000715256,17.6451,5,160,6,0,0,81.0,0.9003488741195169,54.542633393945195,65.33949053508697,20.663328754641128,0.00700360386374022
1,0,2,504,3,2,56.30039,86,1293.6999999284744,29.69961,5,161,6,0,0,81.0,0.9003488741195169,54.542633393945195,65.33949053508697,23.22407560249397,0.005980631535522517
1,0,3,774,2,0,25.3549,0,2830.100000023842,-25.3549,5,162,6,0,0,81.0,0.9003488741195169,54.542633393945195,65.33949053508697,-22.336671245358872,0.011903745304957308
1,0,5,302,5,2,93.24415,100,3109.599999904633,6.755849999999995,5,163,6,0,0,81.0,0.9003488741195169,54.542633393945195,65.33949053508697,-11.053652500508477,0.0033474950251980015
1,0,4,390,4,0,74.79787,98,1823.5,23.202129999999997,5,164,6,0,0,81.0,0.9003488741195169,54.542633393945195,65.33949053508697,11.05175657775473,0.0028447504409500526
1,0,0,329,5,2,87.0672,78,5971.399999976158,-9.0672,5,165,6,0,0,81.0,0.9003488741195169,54.542633393945195,65.33949053508697,-24.981674930951883,0.017583912388412573
1,0,4,843,1,1,19.19495,38,7368.100000023842,18.80505,5,166,6,0,0,81.0,0.9003488741195169,54.542633393945195,65.33949053508697,23.71309288292018,0.0116117124362139
1,0,3,329,5,2,87.0672,100,1845.399999976158,12.9328,5,167,6,0,0,81.0,0.9003488741195169,54.542633393945195,65.33949053508697,-2.9816749309518826,6.607228106709581e-05
1,0,5,504,3,2,56.30039,48,3299.6999999284744,-8.30039,5,168,6,0,0,81.0,0.9003488741195169,54.542633393945195,65.33949053508697,-14.775924397506031,0.002542161201625202
1,0,2,652,2,1,37.72798,38,2971.700000047684,0.2720199999999977,5,169,6,0,0,81.0,0.9003488741195169,54.542633393945195,65.33949053508697,-0.505686241372544,4.191484213061349e-05
1,0,1,550,3,2,50.0,43,1698.100000023842,-7.0,5,170,6,0,0,81.0,0.9003488741195169,54.542633393945195,65.33949053508697,-11.542633393945195,0.0015748354512957591
1,0,2,843,1,0,19.19495,0,1852.200000047684,-19.19495,5,171,6,0,0,81.0,0.9003488741195169,54.542633393945195,65.33949053508697,-14.28690711707982,0.007044418032772633
1,0,1,358,5,1,80.9736,97,1921.700000047684,16.026399999999995,5,172,6,0,0,81.0,0.9003488741195169,54.542633393945195,65.33949053508697,1.981379690124271,0.0002570818833302571
1,0,5,425,4,2,68.59844,100,1346.899999976158,31.401560000000003,5,173,6,0,0,81.0,0.9003488741195169,54.542633393945195,65.33949053508697,21.1531161966318,0.007476338525057568
1,0,4,504,3,0,56.30039,52,1765.399999976158,-4.30039,5,174,6,0,0,81.0,0.9003488741195169,54.542633393945195,65.33949053508697,-10.775924397506031,0.0013669301533888053
1,0,5,1000,1,0,6.87518,0,2877.399999976158,-6.87518,5,175,6,0,0,81.0,0.9003488741195169,54.542633393945195,65.33949053508697,1.8124469525417861,6.208188297336337e-05
1,0,4,358,5,1,80.9736,99,3209.100000023842,18.026399999999995,5,176,6,0,0,81.0,0.9003488741195169,54.542633393945195,65.33949053508697,3.981379690124271,0.0006827104176298177
1,0,3,425,4,2,68.59844,99,6668.599999904633,30.401560000000003,5,177,6,0,0,81.0,0.9003488741195169,54.542633393945195,65.33949053508697,20.1531161966318,0.006801265351732897
1,0,0,1000,1,0,6.87518,0,1739.5999999046326,-6.87518,5,178,6,0,0,81.0,0.9003488741195169,54.542633393945195,65.33949053508697,1.8124469525417861,6.208188297336337e-05
1,0,1,390,4,0,74.79787,98,2068.899999976158,23.202129999999997,5,179,6,0,0,81.0,0.9003488741195169,54.542633393945195,65.33949053508697,11.05175657775473,0.0028447504409500526
1,0,3,1000,1,1,6.87518,1,3789.0,-5.87518,5,180,6,0,0,81.0,0.9003488741195169,54.542633393945195,65.33949053508697,2.8124469525417863,2.423632947024399e-06
2,0,5,774,2,0,25.3549,33,2478.800000000745,7.645099999999999,0,1,2,3,1,0.0,0.45014209349190776,52.92594739667859,8.262572797410048,-15.853309171554528,0.015529368534072267
2,0,2,843,1,1,19.19495,38,2874.5,18.80505,0,2,2,3,1,0.0,0.45014209349190776,52.92594739667859,8.262572797410048,-9.835367930090925,0.007416979108635067
2,0,1,710,2,0,31.58063,43,3974.5,11.41937,0,3,2,3,1,0.0,0.45014209349190776,52.92594739667859,8.262572797410048,-6.882119637119601,0.002294608971308897
2,0,4,425,4,2,68.59844,67,2120.5999999996275,-1.5984399999999965,0,4,2,3,1,0.0,0.45014209349190776,52.92594739667859,8.262572797410048,11.000633501798063,0.005885613569826577
2,0,5,599,3,1,43.84378,54,5681.599999999628,10.156219999999998,0,5,2,3,1,0.0,0.45014209349190776,52.92594739667859,8.262572797410048,2.091376792370717,0.00015748668103883302
2,0,1,390,4,1,74.79787,56,4784.0,-18.797870000000003,0,6,2,3,1,0.0,0.45014209349190776,52.92594739667859,8.262572797410048,-1.0238323007478698,9.307926442746549e-05
2,0,3,504,3,2,56.30039,64,1994.4000000003723,7.69961,0,7,2,3,1,0.0,0.45014209349190776,52.92594739667859,8.262572797410048,10.032903281187473,0.0035147542970794744
2,0,1,302,5,0,93.24415,81,2673.0,-12.244150000000005,0,8,2,3,1,0.0,0.45014209349190776,52.92594739667859,8.262572797410048,20.927893283743124,0.053123103386424474
2,0,5,918,1,0,13.04687,23,1734.5999999996277,9.95313,0,9,2,3,1,0.0,0.45014209349190776,52.92594739667859,8.262572797410048,-23.819389399387923,0.055822704325291364
2,0,1,550,3,0,50.0,53,7022.9000000003725,3.0,0,10,2,3,1,0.0,0.45014209349190776,52.92594739667859,8.262572797410048,0.07405260332141239,8.608041334959771e-08
2,0,0,390,4,2,74.79787,55,4079.099999999628,-19.797870000000003,0,11,2,3,1,0.0,0.45014209349190776,52.92594739667859,8.262572797410048,-2.02383230074787,0.00030915942031946314
2,0,4,652,2,1,37.72798,47,2428.7000000001863,9.272019999999998,0,12,2,3,1,0.0,0.45014209349190776,52.92594739667859,8.262572797410048,-3.8979786719271416,0.0006010864273551156
2,0,1,918,1,2,13.04687,38,3682.300000000745,24.95313,0,13,2,3,1,0.0,0.45014209349190776,52.92594739667859,8.262572797410048,-8.819389399387923,0.007403536307878916
2,0,3,774,2,1,25.3549,46,3446.100000000559,20.6451,0,14,2,3,1,0.0,0.45014209349190776,52.92594739667859,8.262572797410048,-2.8533091715545282,0.000461857995901454
2,0,0,1000,1,0,6.87518,37,2403.2000000001863,30.12482,0,15,2,3,1,0.0,0.45014209349190776,52.92594739667859,8.262572797410048,-8.799507474152776,0.00910414363491064
2,0,4,358,5,2,80.9736,77,2973.9000000003725,-3.9736000000000047,0,16,2,3,1,0.0,0.45014209349190776,52.92594739667859,8.262572797410048,18.955619850003536,0.027954123833564205
2,0,2,599,3,0,43.84378,57,2672.7000000001863,13.156219999999998,0,17,2,3,1,0.0,0.45014209349190776,52.92594739667859,8.262572797410048,5.091376792370717,0.0009237557028079038
2,0,3,843,1,2,19.19495,56,2411.5999999996275,36.80505,0,18,2,3,1,0.0,0.45014209349190776,52.92594739667859,8.262572797410048,8.164632069909075,0.005554955444476037
2,0,4,504,3,2,56.30039,63,2485.7999999998137,6.69961,0,19,2,3,1,0.0,0.45014209349190776,52.92594739667859,8.262572797410048,9.032903281187473,0.00284483637457013
2,0,5,302,5,2,93.24415,89,9431.5,-4.244150000000005,0,20,2,3,1,0.0,0.45014209349190776,52.92594739667859,8.262572797410048,28.927893283743124,0.10236641093246777
2,0,0,599,3,0,43.84378,42,4384.099999999628,-1.8437800000000024,0,21,2,3,1,0.0,0.45014209349190776,52.92594739667859,8.262572797410048,-9.908623207629283,0.0034605629681307604
2,0,5,390,4,0,74.79787,66,4362.299999999814,-8.797870000000003,0,22,2,3,1,0.0,0.45014209349190776,52.92594739667859,8.262572797410048,8.97616769925213,0.0048586396541187024
2,0,2,302,5,1,93.24415,59,2852.399999999441,-34.244150000000005,0,23,2,3,1,0.0,0.45014209349190776,52.92594739667859,8.262572797410048,-1.0721067162568758,0.00024145418583386687
2,0,3,390,4,1,74.79787,62,3123.2000000001863,-12.797870000000003,0,24,2,3,1,0.0,0.45014209349190776,52.92594739667859,8.262572797410048,4.97616769925213,0.0014412092549088522
2,0,0,710,2,1,31.58063,60,2434.600000000559,28.41937,0,25,2,3,1,0.0,0.45014209349190776,52.92594739667859,8.262572797410048,10.117880362880399,0.005213076243807968
2,0,4,918,1,0,13.04687,54,5502.5,40.95313,0,26,2,3,1,0.0,0.45014209349190776,52.92594739667859,8.262572797410048,7.180610600612077,0.005504993783470037
2,0,3,358,5,2,80.9736,59,4590.700000000186,-21.973600000000005,0,27,2,3,1,0.0,0.45014209349190776,52.92594739667859,8.262572797410048,0.9556198500035364,4.1533524797133034e-05
2,0,2,425,4,1,68.59844,57,4962.300000000745,-11.598439999999997,0,28,2,3,1,0.0,0.45014209349190776,52.92594739667859,8.262572797410048,1.0006335017980632,3.618410722317492e-05
2,0,0,302,5,0,93.24415,40,2943.9000000003725,-53.244150000000005,0,29,2,3,1,0.0,0.45014209349190776,52.92594739667859,8.262572797410048,-20.072106716256876,0.05199013724479532
2,0,2,774,2,2,25.3549,63,3308.4000000003725,37.6451,0,30,2,3,1,0.0,0.45014209349190776,52.92594739667859,8.262572797410048,14.146690828445472,0.012851895805062906
2,0,3,463,4,2,62.42097,59,6376.300000000745,-3.420969999999997,1,31,2,3,1,0.0,0.45014209349190776,52.92594739667859,8.262572797410048,4.021469018714029,0.0006252526979926681
2,0,4,843,1,2,19.19495,59,4661.0,39.80505,1,32,2,3,1,0.0,0.45014209349190776,52.92594739667859,8.262572797410048,11.164632069909075,0.010263138624445136
2,0,0,358,5,1,80.9736,56,7821.5,-24.973600000000005,1,33,2,3,1,0.0,0.45014209349190776,52.92594739667859,8.262572797410048,-2.0443801499964636,0.0004140025235700003
2,0,1,599,3,2,43.84378,57,9626.39999999944,13.156219999999998,1,34,2,3,1,0.0,0.45014209349190776,52.92594739667859,8.262572797410048,5.091376792370717,0.0009237557028079038
2,0,5,329,5,0,87.0672,60,3047.2999999998137,-27.0672,1,35,2,3,1,0.0,0.45014209349190776,52.92594739667859,8.262572797410048,0.9486435488788345,4.542169977758469e-05
2,0,0,550,3,2,50.0,57,5754.0,7.0,1,36,2,3,1,0.0,0.45014209349190776,52.92594739667859,8.262572797410048,4.074052603321412,0.0005501651375647461
2,0,5,425,4,2,68.59844,55,5558.099999999628,-13.598439999999997,1,37,2,3,1,0.0,0.45014209349190776,52.92594739667859,8.262572797410048,-0.9993664982019368,6.601827838853048e-05
2,0,2,710,2,1,31.58063,58,7432.0999999996275,26.41937,1,38,2,3,1,0.0,0.45014209349190776,52.92594739667859,8.262572797410048,8.117880362880399,0.003372332496505561
2,0,5,1000,1,2,6.87518,60,7325.900000000372,53.12482,1,39,2,3,1,0.0,0.45014209349190776,52.92594739667859,8.262572797410048,14.200492525847224,0.02620174296424912
2,0,4,329,5,1,87.0672,57,5452.200000000186,-30.0672,1,40,2,3,1,0.0,0.45014209349190776,52.92594739667859,8.262572797410048,-2.0513564511211655,0.000542550991627438
2,0,3,1000,1,0,6.87518,42,5680.700000000186,35.12482,1,41,2,3,1,0.0,0.45014209349190776,52.92594739667859,8.262572797410048,-3.799507474152776,0.0015589925370159575
2,0,4,463,4,0,62.42097,60,5501.799999999814,-2.420969999999997,1,42,2,3,1,0.0,0.45014209349190776,52.92594739667859,8.262572797410048,5.021469018714029,0.0009856004025251127
2,0,0,774,2,0,25.3549,56,36629.09999999963,30.6451,1,43,2,3,1,0.0,0.45014209349190776,52.92594739667859,8.262572797410048,7.146690828445472,0.003345097137525807
2,0,2,463,4,0,62.42097,66,4384.700000000186,3.579030000000003,1,44,2,3,1,0.0,0.45014209349190776,52.92594739667859,8.262572797410048,11.02146901871403,0.004862216157922408
2,0,5,652,2,2,37.72798,63,3122.100000000559,25.272019999999998,1,45,2,3,1,0.0,0.45014209349190776,52.92594739667859,8.262572797410048,12.102021328072858,0.006036145746245357
2,0,0,425,4,1,68.59844,66,21974.5,-2.5984399999999965,1,46,2,3,1,0.0,0.45014209349190776,52.92594739667859,8.262572797410048,10.000633501798063,0.004850775599683973
2,0,2,329,5,2,87.0672,60,3915.7999999998137,-27.0672,1,47,2,3,1,0.0,0.45014209349190776,52.92594739667859,8.262572797410048,0.9486435488788345,4.542169977758469e-05
2,0,1,652,2,2,37.72798,56,5709.200000000186,18.272019999999998,1,48,2,3,1,0.0,0.45014209349190776,52.92594739667859,8.262572797410048,5.102021328072858,0.0010874094833365146
2,0,0,918,1,2,13.04687,37,4120.800000000745,23.95313,1,49,2,3,1,0.0,0.45014209349190776,52.92594739667859,8.262572797410048,-9.819389399387923,0.009227287333532416
2,0,3,652,2,0,37.72798,54,2884.4000000003725,16.272019999999998,1,50,2,3,1,0.0,0.45014209349190776,52.92594739667859,8.262572797410048,3.1020213280728584,0.00040802706847523437
2,0,2,918,1,0,13.04687,42,5447.700000000186,28.95313,1,51,2,3,1,0.0,0.45014209349190776,52.92594739667859,8.262572797410048,-4.819389399387923,0.0021145229321801414
2,0,4,550,3,1,50.0,56,4342.799999999814,6.0,1,52,2,3,1,0.0,0.45014209349190776,52.92594739667859,8.262572797410048,3.0740526033214124,0.000312053925049534
2,0,3,302,5,0,93.24415,57,2338.5999999996275,-36.244150000000005,1,53,2,3,1,0.0,0.45014209349190776,52.92594739667859,8.262572797410048,-3.072106716256876,0.0014367549167640678
2,0,5,550,3,2,50.0,52,5024.700000000186,2.0,1,54,2,3,1,0.0,0.45014209349190776,52.92594739667859,8.262572797410048,-0.9259473966785876,3.021872983777192e-05
2,0,1,425,4,2,68.59844,59,18912.39999999944,-9.598439999999997,1,55,2,3,1,0.0,0.45014209349190776,52.92594739667859,8.262572797410048,3.000633501798063,0.0004062566239531646
2,0,3,599,3,0,43.84378,56,3539.5999999996275,12.156219999999998,1,56,2,3,1,0.0,0.45014209349190776,52.92594739667859,8.262572797410048,4.091376792370717,0.0005975754469496779
2,0,1,1000,1,1,6.87518,41,6583.399999999441,34.12482,1,57,2,3,1,0.0,0.45014209349190776,52.92594739667859,8.262572797410048,-4.799507474152776,0.002567488511380846
2,0,4,710,2,0,31.58063,56,4476.200000000186,24.41937,1,58,2,3,1,0.0,0.45014209349190776,52.92594739667859,8.262572797410048,6.117880362880399,0.0019308939909151975
2,0,1,358,5,1,80.9736,67,2768.100000000559,-13.973600000000005,1,59,2,3,1,0.0,0.45014209349190776,52.92594739667859,8.262572797410048,8.955619850003536,0.006066726190830269
2,0,2,504,3,2,56.30039,61,2331.0,4.69961,1,60,2,3,1,0.0,0.45014209349190776,52.92594739667859,8.262572797410048,7.0329032811874725,0.0017172981434722262
2,0,2,358,5,0,80.9736,58,1780.0,-22.973600000000005,2,61,2,3,1,0.0,0.45014209349190776,52.92594739667859,8.262572797410048,-0.04438014999646356,6.179782052616459e-06
2,0,3,550,3,1,50.0,57,1173.3999999994412,7.0,2,62,2,3,1,0.0,0.45014209349190776,52.92594739667859,8.262572797410048,4.074052603321412,0.0005501651375647461
2,0,2,652,2,0,37.72798,54,2421.4000000003725,16.272019999999998,2,63,2,3,1,0.0,0.45014209349190776,52.92594739667859,8.262572797410048,3.1020213280728584,0.00040802706847523437
2,0,4,599,3,0,43.84378,53,3027.5999999996275,9.156219999999998,2,64,2,3,1,0.0,0.45014209349190776,52.92594739667859,8.262572797410048,1.091376792370717,4.357817098621407e-05
2,0,5,710,2,1,31.58063,47,2946.9000000003725,15.41937,2,65,2,3,1,0.0,0.45014209349190776,52.92594739667859,8.262572797410048,-2.882119637119601,0.00038582308194510205
2,0,4,390,4,1,74.79787,64,2598.600000000559,-10.797870000000003,2,66,2,3,1,0.0,0.45014209349190776,52.92594739667859,8.262572797410048,6.97616769925213,0.002898056747291551
2,0,5,504,3,0,56.30039,60,1819.5,3.69961,2,67,2,3,1,0.0,0.45014209349190776,52.92594739667859,8.262572797410048,6.0329032811874725,0.001259677834883665
2,0,0,843,1,1,19.19495,52,4726.199999999255,32.80505,2,68,2,3,1,0.0,0.45014209349190776,52.92594739667859,8.262572797410048,4.164632069909075,0.0015078314077745431
2,0,1,504,3,1,56.30039,55,2615.9000000003725,-1.3003900000000002,2,69,2,3,1,0.0,0.45014209349190776,52.92594739667859,8.262572797410048,1.0329032811874725,3.3064361544769147e-05
2,0,0,463,4,0,62.42097,45,3668.900000000373,-17.420969999999997,2,70,2,3,1,0.0,0.45014209349190776,52.92594739667859,8.262572797410048,-9.97853098128597,0.004153032475551585
2,0,3,918,1,1,13.04687,55,1951.2000000001865,41.95313,2,71,2,3,1,0.0,0.45014209349190776,52.92594739667859,8.262572797410048,8.180610600612077,0.007091426993572428
2,0,5,463,4,1,62.42097,58,2975.300000000745,-4.420969999999997,2,72,2,3,1,0.0,0.45014209349190776,52.92594739667859,8.262572797410048,3.021469018714029,0.00034654925670796785
2,0,0,652,2,2,37.72798,57,2776.399999999441,19.272019999999998,2,73,2,3,1,0.0,0.45014209349190776,52.92594739667859,8.262572797410048,6.102021328072858,0.0015495243960478389
2,0,1,329,5,2,87.0672,74,2041.7000000001865,-13.0672,2,74,2,3,1,0.0,0.45014209349190776,52.92594739667859,8.262572797410048,14.948643548878835,0.02157674015040965
2,0,4,774,2,2,25.3549,56,1580.2999999998135,30.6451,2,75,2,3,1,0.0,0.45014209349190776,52.92594739667859,8.262572797410048,7.146690828445472,0.003345097137525807
2,0,1,463,4,0,62.42097,52,2540.100000000559,-10.420969999999997,2,76,2,3,1,0.0,0.45014209349190776,52.92594739667859,8.262572797410048,-2.978530981285971,0.0003888581372023944
2,0,4,302,5,0,93.24415,58,2465.399999999441,-35.244150000000005,2,77,2,3,1,0.0,0.45014209349190776,52.92594739667859,8.262572797410048,-2.072106716256876,0.0007140478141004394
2,0,1,774,2,1,25.3549,45,4356.099999999628,19.6451,2,78,2,3,1,0.0,0.45014209349190776,52.92594739667859,8.262572797410048,-3.8533091715545282,0.0008657512578096112
2,0,4,1000,1,1,6.87518,44,7571.900000000372,37.12482,2,79,2,3,1,0.0,0.45014209349190776,52.92594739667859,8.262572797410048,-1.799507474152776,0.0002928019561072543
2,0,3,710,2,2,31.58063,58,1790.699999999255,26.41937,2,80,2,3,1,0.0,0.45014209349190776,52.92594739667859,8.262572797410048,8.117880362880399,0.003372332496505561
2,0,5,358,5,1,80.9736,78,2509.0999999996275,-2.9736000000000047,2,81,2,3,1,0.0,0.45014209349190776,52.92594739667859,8.262572797410048,19.955619850003536,0.03102016901401603
2,0,0,504,3,1,56.30039,40,3883.0,-16.30039,2,82,2,3,1,0.0,0.45014209349190776,52.92594739667859,8.262572797410048,-13.967096718812527,0.006968104637567187
2,0,2,390,4,2,74.79787,58,1595.6000000005588,-16.797870000000003,2,83,2,3,1,0.0,0.45014209349190776,52.92594739667859,8.262572797410048,0.9761676992521302,3.872051347680902e-05
2,0,0,329,5,2,87.0672,54,2452.600000000559,-33.0672,2,84,2,3,1,0.0,0.45014209349190776,52.92594739667859,8.262572797410048,-5.0513564511211655,0.002843556723085547
2,0,5,843,1,1,19.19495,60,4374.100000000559,40.80505,2,85,2,3,1,0.0,0.45014209349190776,52.92594739667859,8.262572797410048,12.164632069909075,0.012151169237281113
2,0,2,550,3,1,50.0,56,1553.7000000001865,6.0,2,86,2,3,1,0.0,0.45014209349190776,52.92594739667859,8.262572797410048,3.0740526033214124,0.000312053925049534
2,0,3,329,5,1,87.0672,68,1524.3999999994412,-19.0672,2,87,2,3,1,0.0,0.45014209349190776,52.92594739667859,8.262572797410048,8.948643548878835,0.0075386950707072254
2,0,1,843,1,0,19.19495,40,1365.9000000003723,20.80505,2,88,2,3,1,0.0,0.45014209349190776,52.92594739667859,8.262572797410048,-7.835367930090925,0.004660997834291585
2,0,3,425,4,0,68.59844,58,2011.800000000745,-10.598439999999997,2,89,2,3,1,0.0,0.45014209349190776,52.92594739667859,8.262572797410048,2.000633501798063,0.0001712320296012516
2,0,2,1000,1,2,6.87518,19,5719.099999999628,12.12482,2,90,2,3,1,0.0,0.45014209349190776,52.92594739667859,8.262572797410048,-26.799507474152776,0.08807198196698555
2,0,2,710,2,2,31.58063,57,4670.9000000003725,25.41937,3,91,2,3,1,0.0,0.45014209349190776,52.92594739667859,8.262572797410048,7.117880362880399,0.002601700088496374
2,0,0,302,5,1,93.24415,60,1123.199999999255,-33.244150000000005,3,92,2,3,1,0.0,0.45014209349190776,52.92594739667859,8.262572797410048,-0.07210671625687581,1.8974031964350503e-05
2,0,3,710,2,2,31.58063,43,3517.600000000559,11.41937,3,93,2,3,1,0.0,0.45014209349190776,52.92594739667859,8.262572797410048,-6.882119637119601,0.002294608971308897
2,0,2,1000,1,1,6.87518,37,1177.9000000003723,30.12482,3,94,2,3,1,0.0,0.45014209349190776,52.92594739667859,8.262572797410048,-8.799507474152776,0.00910414363491064
2,0,0,774,2,2,25.3549,44,1809.6000000005588,18.6451,3,95,2,3,1,0.0,0.45014209349190776,52.92594739667859,8.262572797410048,-4.853309171554528,0.0013955021880942403
2,0,4,504,3,0,56.30039,46,1998.9000000003723,-10.30039,3,96,2,3,1,0.0,0.45014209349190776,52.92594739667859,8.262572797410048,-7.9670967188125275,0.002283410001871181
2,0,1,774,2,1,25.3549,45,2856.0999999996275,19.6451,3,97,2,3,1,0.0,0.45014209349190776,52.92594739667859,8.262572797410048,-3.8533091715545282,0.0008657512578096112
2,0,2,329,5,1,87.0672,47,2053.0,-40.0672,3,98,2,3,1,0.0,0.45014209349190776,52.92594739667859,8.262572797410048,-12.051356451121165,0.015227645139408797
2,0,1,843,1,0,19.19495,66,2953.600000000559,46.80505,3,99,2,3,1,0.0,0.45014209349190776,52.92594739667859,8.262572797410048,18.164632069909075,0.026825033219182955
2,0,2,463,4,1,62.42097,57,2543.600000000559,-5.420969999999997,3,100,2,3,1,0.0,0.45014209349190776,52.92594739667859,8.262572797410048,2.021469018714029,0.00014949007867101185
2,0,4,652,2,1,37.72798,57,2409.600000000559,19.272019999999998,3,101,2,3,1,0.0,0.45014209349190776,52.92594739667859,8.262572797410048,6.102021328072858,0.0015495243960478389
2,0,0,504,3,2,56.30039,56,2398.5999999996275,-0.30039000000000016,3,102,2,3,1,0.0,0.45014209349190776,52.92594739667859,8.262572797410048,2.0329032811874725,0.00013685531359869353
2,0,4,843,1,1,19.19495,57,2276.5,37.80505,3,103,2,3,1,0.0,0.45014209349190776,52.92594739667859,8.262572797410048,9.164632069909075,0.006965031728042593
2,0,3,550,3,0,50.0,53,6544.200000000186,3.0,3,104,2,3,1,0.0,0.45014209349190776,52.92594739667859,8.262572797410048,0.07405260332141239,8.608041334959771e-08
2,0,4,329,5,2,87.0672,54,3247.2999999998137,-33.0672,3,105,2,3,1,0.0,0.45014209349190776,52.92594739667859,8.262572797410048,-5.0513564511211655,0.002843556723085547
2,0,3,463,4,2,62.42097,55,2720.7999999998137,-7.420969999999997,3,106,2,3,1,0.0,0.45014209349190776,52.92594739667859,8.262572797410048,0.021469018714029175,3.045123403322526e-07
2,0,5,918,1,1,13.04687,54,10102.400000000373,40.95313,3,107,2,3,1,0.0,0.45014209349190776,52.92594739667859,8.262572797410048,7.180610600612077,0.005504993783470037
2,0,4,463,4,0,62.42097,55,2768.5,-7.420969999999997,3,108,2,3,1,0.0,0.45014209349190776,52.92594739667859,8.262572797410048,0.021469018714029175,3.045123403322526e-07
2,0,1,599,3,0,43.84378,55,4838.5,11.156219999999998,3,109,2,3,1,0.0,0.45014209349190776,52.92594739667859,8.262572797410048,3.091376792370717,0.00034215243969332095
2,0,5,390,4,2,74.79787,57,6226.600000000559,-17.797870000000003,3,110,2,3,1,0.0,0.45014209349190776,52.92594739667859,8.262572797410048,-0.023832300747869795,2.9329621465807557e-06
2,0,2,550,3,0,50.0,56,1809.1000000005588,6.0,3,111,2,3,1,0.0,0.45014209349190776,52.92594739667859,8.262572797410048,3.0740526033214124,0.000312053925049534
2,0,1,390,4,0,74.79787,55,3782.7999999998137,-19.797870000000003,3,112,2,3,1,0.0,0.45014209349190776,52.92594739667859,8.262572797410048,-2.02383230074787,0.00030915942031946314
2,0,5,504,3,0,56.30039,58,2246.5,1.6996099999999998,3,113,2,3,1,0.0,0.45014209349190776,52.92594739667859,8.262572797410048,4.0329032811874725,0.0005567348316273243
2,0,0,843,1,0,19.19495,39,2296.2000000001863,19.80505,3,114,2,3,1,0.0,0.45014209349190776,52.92594739667859,8.262572797410048,-8.835367930090925,0.005959329416585086
2,0,5,774,2,2,25.3549,45,3427.5,19.6451,3,115,2,3,1,0.0,0.45014209349190776,52.92594739667859,8.262572797410048,-3.8533091715545282,0.0008657512578096112
2,0,3,329,5,2,87.0672,61,3174.399999999441,-26.0672,3,116,2,3,1,0.0,0.45014209349190776,52.92594739667859,8.262572797410048,1.9486435488788345,0.00028057336685169035
2,0,0,390,4,2,74.79787,59,3496.0,-15.797870000000003,3,117,2,3,1,0.0,0.45014209349190776,52.92594739667859,8.262572797410048,1.9761676992521302,0.0002004419184181503
2,0,5,358,5,1,80.9736,61,2480.7999999998137,-19.973600000000005,3,118,2,3,1,0.0,0.45014209349190776,52.92594739667859,8.262572797410048,2.9556198500035364,0.0005907712372925832
2,0,3,843,1,0,19.19495,60,4421.200000000186,40.80505,3,119,2,3,1,0.0,0.45014209349190776,52.92594739667859,8.262572797410048,12.164632069909075,0.012151169237281113
2,0,1,329,5,1,87.0672,58,1598.0,-29.0672,3,120,2,3,1,0.0,0.45014209349190776,52.92594739667859,8.262572797410048,-1.0513564511211655,0.00017641051216545837
2,0,5,550,3,1,50.0,57,3380.0999999996275,7.0,4,121,2,3,1,0.0,0.45014209349190776,52.92594739667859,8.262572797410048,4.074052603321412,0.0005501651375647461
2,0,3,390,4,0,74.79787,55,4593.0,-19.797870000000003,4,122,2,3,1,0.0,0.45014209349190776,52.92594739667859,8.262572797410048,-2.02383230074787,0.00030915942031946314
2,0,1,1000,1,2,6.87518,41,2266.0,34.12482,4,123,2,3,1,0.0,0.45014209349190776,52.92594739667859,8.262572797410048,-4.799507474152776,0.002567488511380846
2,0,3,599,3,1,43.84378,42,1859.5,-1.8437800000000024,4,124,2,3,1,0.0,0.45014209349190776,52.92594739667859,8.262572797410048,-9.908623207629283,0.0034605629681307604
2,0,1,463,4,2,62.42097,54,3001.2000000001863,-8.420969999999997,4,125,2,3,1,0.0,0.45014209349190776,52.92594739667859,8.262572797410048,-0.9785309812859708,4.817812404660877e-05
2,0,3,918,1,2,13.04687,42,2660.0,28.95313,4,126,2,3,1,0.0,0.45014209349190776,52.92594739667859,8.262572797410048,-4.819389399387923,0.0021145229321801414
2,0,1,302,5,2,93.24415,57,2187.199999999255,-36.244150000000005,4,127,2,3,1,0.0,0.45014209349190776,52.92594739667859,8.262572797410048,-3.072106716256876,0.0014367549167640678
2,0,5,1000,1,0,6.87518,43,2430.300000000745,36.12482,4,128,2,3,1,0.0,0.45014209349190776,52.92594739667859,8.262572797410048,-2.799507474152776,0.0008007636852580943
2,0,3,302,5,1,93.24415,44,4898.399999999441,-49.244150000000005,4,129,2,3,1,0.0,0.45014209349190776,52.92594739667859,8.262572797410048,-16.072106716256876,0.033592273421523336
2,0,1,652,2,0,37.72798,47,2551.2999999998137,9.272019999999998,4,130,2,3,1,0.0,0.45014209349190776,52.92594739667859,8.262572797410048,-3.8979786719271416,0.0006010864273551156
2,0,4,425,4,1,68.59844,42,4347.4000000003725,-26.598439999999997,4,131,2,3,1,0.0,0.45014209349190776,52.92594739667859,8.262572797410048,-13.999366498201937,0.010007665908412384
2,0,0,550,3,0,50.0,37,1474.6000000005588,-13.0,4,132,2,3,1,0.0,0.45014209349190776,52.92594739667859,8.262572797410048,-15.925947396678588,0.008529524329393134
2,0,4,302,5,0,93.24415,82,1403.0,-11.244150000000005,4,133,2,3,1,0.0,0.45014209349190776,52.92594739667859,8.262572797410048,21.927893283743124,0.058403119669290196
2,0,1,550,3,2,50.0,42,3164.0999999996275,-8.0,4,134,2,3,1,0.0,0.45014209349190776,52.92594739667859,8.262572797410048,-10.925947396678588,0.004019898325751966
2,0,2,358,5,0,80.9736,41,2155.5999999996275,-39.973600000000005,4,135,2,3,1,0.0,0.45014209349190776,52.92594739667859,8.262572797410048,-17.044380149996464,0.023810207732723104
2,0,4,1000,1,2,6.87518,43,2141.2000000001863,36.12482,4,136,2,3,1,0.0,0.45014209349190776,52.92594739667859,8.262572797410048,-2.799507474152776,0.0008007636852580943
2,0,5,425,4,0,68.59844,46,5340.5,-22.598439999999997,4,137,2,3,1,0.0,0.45014209349190776,52.92594739667859,8.262572797410048,-9.999366498201937,0.005149117311337528
2,0,0,358,5,0,80.9736,41,2017.6000000005588,-39.973600000000005,4,138,2,3,1,0.0,0.45014209349190776,52.92594739667859,8.262572797410048,-17.044380149996464,0.023810207732723104
2,0,5,710,2,1,31.58063,47,2927.7999999998137,15.41937,4,139,2,3,1,0.0,0.45014209349190776,52.92594739667859,8.262572797410048,-2.882119637119601,0.00038582308194510205
2,0,2,843,1,0,19.19495,41,2792.7000000001863,21.80505,4,140,2,3,1,0.0,0.45014209349190776,52.92594739667859,8.262572797410048,-6.835367930090925,0.003521984361754556
2,0,4,774,2,2,25.3549,45,3027.7999999998137,19.6451,4,141,2,3,1,0.0,0.45014209349190776,52.92594739667859,8.262572797410048,-3.8533091715545282,0.0008657512578096112
2,0,0,463,4,1,62.42097,44,2561.0999999996275,-18.420969999999997,4,142,2,3,1,0.0,0.45014209349190776,52.92594739667859,8.262572797410048,-10.97853098128597,0.005017348719735304
2,0,2,652,2,0,37.72798,41,1778.2999999998135,3.2720199999999977,4,143,2,3,1,0.0,0.45014209349190776,52.92594739667859,8.262572797410048,-9.897978671927142,0.003949582215121365
2,0,5,329,5,0,87.0672,43,2481.699999999255,-44.0672,4,144,2,3,1,0.0,0.45014209349190776,52.92594739667859,8.262572797410048,-16.051356451121165,0.026713742832858135
2,0,2,504,3,2,56.30039,45,3383.5999999996275,-11.30039,4,145,2,3,1,0.0,0.45014209349190776,52.92594739667859,8.262572797410048,-8.967096718812527,0.00288727776288653
2,0,3,652,2,1,37.72798,39,3100.7000000001863,1.2720199999999977,4,146,2,3,1,0.0,0.45014209349190776,52.92594739667859,8.262572797410048,-11.897978671927142,0.005718673905873765
2,0,4,550,3,2,50.0,40,6817.0,-10.0,4,147,2,3,1,0.0,0.45014209349190776,52.92594739667859,8.262572797410048,-12.925947396678588,0.005622565830753708
2,0,0,710,2,0,31.58063,41,1697.5,9.41937,4,148,2,3,1,0.0,0.45014209349190776,52.92594739667859,8.262572797410048,-8.882119637119601,0.003847959778558859
2,0,2,425,4,0,68.59844,39,4934.0,-29.598439999999997,4,149,2,3,1,0.0,0.45014209349190776,52.92594739667859,8.262572797410048,-16.999366498201937,0.014701332411943806
2,0,0,918,1,1,13.04687,42,2160.600000000559,28.95313,4,150,2,3,1,0.0,0.45014209349190776,52.92594739667859,8.262572797410048,-4.819389399387923,0.0021145229321801414
2,0,5,843,1,2,19.19495,39,2347.5999999996275,19.80505,5,151,2,3,1,0.0,0.45014209349190776,52.92594739667859,8.262572797410048,-8.835367930090925,0.005959329416585086
2,0,2,774,2,1,25.3549,43,2002.5,17.6451,5,152,2,3,1,0.0,0.45014209349190776,52.92594739667859,8.262572797410048,-5.853309171554528,0.0020511107867553406
2,0,3,1000,1,1,6.87518,40,1432.0999999996277,33.12482,5,153,2,3,1,0.0,0.45014209349190776,52.92594739667859,8.262572797410048,-5.799507474152776,0.0038262516083527585
2,0,5,652,2,0,37.72798,42,2311.9000000003725,4.272019999999998,5,154,2,3,1,0.0,0.45014209349190776,52.92594739667859,8.262572797410048,-8.897978671927142,0.003187460075025851
2,0,2,599,3,1,43.84378,45,3163.0,1.1562199999999976,5,155,2,3,1,0.0,0.45014209349190776,52.92594739667859,8.262572797410048,-6.908623207629283,0.0016795710402325464
2,0,3,425,4,1,68.59844,41,1512.0,-27.598439999999997,5,156,2,3,1,0.0,0.45014209349190776,52.92594739667859,8.262572797410048,-14.999366498201937,0.011472244737615687
2,0,0,329,5,2,87.0672,46,4070.200000000186,-41.0672,5,157,2,3,1,0.0,0.45014209349190776,52.92594739667859,8.262572797410048,-13.051356451121165,0.01779852348950308
2,0,2,390,4,2,74.79787,42,1883.6000000005588,-32.79787,5,158,2,3,1,0.0,0.45014209349190776,52.92594739667859,8.262572797410048,-15.02383230074787,0.01457818212552671
2,0,3,358,5,0,80.9736,41,5846.800000000745,-39.973600000000005,5,159,2,3,1,0.0,0.45014209349190776,52.92594739667859,8.262572797410048,-17.044380149996464,0.023810207732723104
2,0,0,1000,1,2,6.87518,43,1298.7000000001865,36.12482,5,160,2,3,1,0.0,0.45014209349190776,52.92594739667859,8.262572797410048,-2.799507474152776,0.0008007636852580943
2,0,5,302,5,2,93.24415,60,1550.7000000001865,-33.244150000000005,5,161,2,3,1,0.0,0.45014209349190776,52.92594739667859,8.262572797410048,-0.07210671625687581,1.8974031964350503e-05
2,0,4,599,3,1,43.84378,61,1743.2999999998135,17.156219999999998,5,162,2,3,1,0.0,0.45014209349190776,52.92594739667859,8.262572797410048,9.091376792370717,0.0029360492122594973
2,0,0,652,2,1,37.72798,61,2115.0,23.272019999999998,5,163,2,3,1,0.0,0.45014209349190776,52.92594739667859,8.262572797410048,10.102021328072858,0.004214142082097694
2,0,3,504,3,2,56.30039,59,2082.9000000003725,2.69961,5,164,2,3,1,0.0,0.45014209349190776,52.92594739667859,8.262572797410048,5.0329032811874725,0.0008728233976020307
2,0,4,710,2,0,31.58063,53,11614.200000000186,21.41937,5,165,2,3,1,0.0,0.45014209349190776,52.92594739667859,8.262572797410048,3.117880362880399,0.000517433560739735
2,0,1,918,1,1,13.04687,57,3276.300000000745,43.95313,5,166,2,3,1,0.0,0.45014209349190776,52.92594739667859,8.262572797410048,10.180610600612077,0.010866090631851778
2,0,5,599,3,2,43.84378,58,4012.2999999998137,14.156219999999998,5,167,2,3,1,0.0,0.45014209349190776,52.92594739667859,8.262572797410048,6.091376792370717,0.0013206932072679985
2,0,1,710,2,2,31.58063,60,1685.4000000003723,28.41937,5,168,2,3,1,0.0,0.45014209349190776,52.92594739667859,8.262572797410048,10.117880362880399,0.005213076243807968
2,0,0,425,4,0,68.59844,58,4098.5,-10.598439999999997,5,169,2,3,1,0.0,0.45014209349190776,52.92594739667859,8.262572797410048,2.000633501798063,0.0001712320296012516
2,0,1,358,5,0,80.9736,59,4348.4000000003725,-21.973600000000005,5,170,2,3,1,0.0,0.45014209349190776,52.92594739667859,8.262572797410048,0.9556198500035364,4.1533524797133034e-05
2,0,5,463,4,1,62.42097,61,3364.399999999441,-1.420969999999997,5,171,2,3,1,0.0,0.45014209349190776,52.92594739667859,8.262572797410048,6.021469018714029,0.0014275923703053013
2,0,2,302,5,2,93.24415,60,1530.0,-33.244150000000005,5,172,2,3,1,0.0,0.45014209349190776,52.92594739667859,8.262572797410048,-0.07210671625687581,1.8974031964350503e-05
2,0,1,425,4,1,68.59844,59,1770.199999999255,-9.598439999999997,5,173,2,3,1,0.0,0.45014209349190776,52.92594739667859,8.262572797410048,3.000633501798063,0.0004062566239531646
2,0,4,918,1,0,13.04687,59,3414.2000000001863,45.95313,5,174,2,3,1,0.0,0.45014209349190776,52.92594739667859,8.262572797410048,12.180610600612077,0.01544315056089723
2,0,1,504,3,1,56.30039,59,7764.5999999996275,2.69961,5,175,2,3,1,0.0,0.45014209349190776,52.92594739667859,8.262572797410048,5.0329032811874725,0.0008728233976020307
2,0,4,390,4,2,74.79787,58,3990.599999999628,-16.797870000000003,5,176,2,3,1,0.0,0.45014209349190776,52.92594739667859,8.262572797410048,0.9761676992521302,3.872051347680902e-05
2,0,2,918,1,2,13.04687,62,8898.799999999814,48.95313,5,177,2,3,1,0.0,0.45014209349190776,52.92594739667859,8.262572797410048,15.180610600612077,0.023813233499651813
2,0,3,774,2,0,25.3549,60,1610.1000000005588,34.6451,5,178,2,3,1,0.0,0.45014209349190776,52.92594739667859,8.262572797410048,11.146690828445472,0.008022407508716746
2,0,4,358,5,1,80.9736,59,10467.299999999814,-21.973600000000005,5,179,2,3,1,0.0,0.45014209349190776,52.92594739667859,8.262572797410048,0.9556198500035364,4.1533524797133034e-05
2,0,0,599,3,1,43.84378,61,1713.5,17.156219999999998,5,180,2,3,1,0.0,0.45014209349190776,52.92594739667859,8.262572797410048,9.091376792370717,0.0029360492122594973
3,0,1,918,1,0,13.04687,0,2947.9000000953674,-13.04687,0,1,6,0,0,33.0,0.9417957862352193,50.433575954087445,60.637581181218515,-5.6186114899195045,0.0024143225673219186
3,0,0,302,5,1,93.24415,100,4912.199999928474,6.755849999999995,0,2,6,0,0,33.0,0.9417957862352193,50.433575954087445,60.637581181218515,-2.8779932681083693,0.0006964557860627713
3,0,4,425,4,2,68.59844,50,6333.200000047684,-18.598439999999997,0,3,6,0,0,33.0,0.9417957862352193,50.433575954087445,60.637581181218515,-22.988862889767702,0.016938776115292934
3,0,1,302,5,0,93.24415,95,3466.600000023842,1.7558499999999952,0,4,6,0,0,33.0,0.9417957862352193,50.433575954087445,60.637581181218515,-7.877993268108369,0.004996881486762269
3,0,0,463,4,2,62.42097,37,2046.899999976158,-25.420969999999997,0,5,6,0,0,33.0,0.9417957862352193,50.433575954087445,60.637581181218515,-28.497129013720482,0.02122250126991472
3,0,3,774,2,0,25.3549,3,2173.599999904633,-22.3549,0,6,6,0,0,33.0,0.9417957862352193,50.433575954087445,60.637581181218515,-17.545194084084017,0.012863826667579901
3,0,0,918,1,2,13.04687,1,2854.9000000953674,-12.04687,0,7,6,0,0,33.0,0.9417957862352193,50.433575954087445,60.637581181218515,-4.6186114899195045,0.0016975553124264195
3,0,3,425,4,2,68.59844,86,3179.0,17.401560000000003,0,8,6,0,0,33.0,0.9417957862352193,50.433575954087445,60.637581181218515,13.011137110232298,0.005112444778575752
3,0,0,652,2,0,37.72798,24,2073.100000023842,-13.727980000000002,0,9,6,0,0,33.0,0.9417957862352193,50.433575954087445,60.637581181218515,-11.550667059338117,0.003675529107323822
3,0,3,918,1,1,13.04687,0,2697.5,-13.04687,0,10,6,0,0,33.0,0.9417957862352193,50.433575954087445,60.637581181218515,-5.6186114899195045,0.0024143225673219186
3,0,2,425,4,0,68.59844,79,3717.600000023842,10.401560000000003,0,11,6,0,0,33.0,0.9417957862352193,50.433575954087445,60.637581181218515,6.011137110232298,0.0010427447862159385
3,0,1,599,3,0,43.84378,32,1990.5,-11.843780000000002,0,12,6,0,0,33.0,0.9417957862352193,50.433575954087445,60.637581181218515,-10.967611101053883,0.0028656317790558563
3,0,2,652,2,1,37.72798,47,2448.6999999284744,9.272019999999998,0,13,6,0,0,33.0,0.9417957862352193,50.433575954087445,60.637581181218515,11.449332940661883,0.0031110003380305203
3,0,1,463,4,2,62.42097,52,2666.200000047684,-10.420969999999997,0,14,6,0,0,33.0,0.9417957862352193,50.433575954087445,60.637581181218515,-13.497129013720482,0.004865278539008262
3,0,4,302,5,1,93.24415,100,3546.899999976158,6.755849999999995,0,15,6,0,0,33.0,0.9417957862352193,50.433575954087445,60.637581181218515,-2.8779932681083693,0.0006964557860627714
3,0,1,652,2,0,37.72798,25,2368.200000047684,-12.727980000000002,0,16,6,0,0,33.0,0.9417957862352193,50.433575954087445,60.637581181218515,-10.550667059338117,0.0030874875100346854
3,0,3,504,3,1,56.30039,45,2838.3000000715256,-11.30039,0,17,6,0,0,33.0,0.9417957862352193,50.433575954087445,60.637581181218515,-13.074389304918874,0.003983715672778699
3,0,5,302,5,1,93.24415,95,2866.2999999523163,1.7558499999999952,0,18,6,0,0,33.0,0.9417957862352193,50.433575954087445,60.637581181218515,-7.877993268108369,0.004996881486762269
3,0,2,1000,1,2,6.87518,0,3387.200000047684,-6.87518,0,19,6,0,0,33.0,0.9417957862352193,50.433575954087445,60.637581181218515,1.8661241430407771,0.0001238067376013124
3,0,5,504,3,2,56.30039,48,4437.799999952316,-8.30039,0,20,6,0,0,33.0,0.9417957862352193,50.433575954087445,60.637581181218515,-10.074389304918874,0.0023989353395778685
3,0,3,329,5,1,87.0672,92,3809.6999999284735,4.9328,0,21,6,0,0,33.0,0.9417957862352193,50.433575954087445,60.637581181218515,-3.3868850400127997,0.0007811810700120199
3,0,5,918,1,1,13.04687,8,2372.5,-5.04687,0,22,6,0,0,33.0,0.9417957862352193,50.433575954087445,60.637581181218515,2.3813885100804955,0.0002056097986797454
3,0,0,504,3,0,56.30039,52,5573.399999976158,-4.30039,0,23,6,0,0,33.0,0.9417957862352193,50.433575954087445,60.637581181218515,-6.074389304918874,0.0009077317454225126
3,0,5,774,2,2,25.3549,18,2548.0,-7.354900000000001,0,24,6,0,0,33.0,0.9417957862352193,50.433575954087445,60.637581181218515,-2.5451940840840166,0.0003666364301008611
3,0,4,918,1,0,13.04687,6,3441.6999999284744,-7.04687,0,25,6,0,0,33.0,0.9417957862352193,50.433575954087445,60.637581181218515,0.38138851008049546,2.3397185856125837e-06
3,0,5,425,4,0,68.59844,84,5226.099999904633,15.401560000000003,0,26,6,0,0,33.0,0.9417957862352193,50.433575954087445,60.637581181218515,11.011137110232298,0.0036359164842589727
3,0,4,504,3,0,56.30039,49,3731.6999999284735,-7.30039,0,27,6,0,0,33.0,0.9417957862352193,50.433575954087445,60.637581181218515,-9.074389304918874,0.0019595090642412706
3,0,2,329,5,1,87.0672,82,2479.4000000953674,-5.0672,0,28,6,0,0,33.0,0.9417957862352193,50.433575954087445,60.637581181218515,-13.3868850400128,0.011504682992274223
3,0,4,774,2,1,25.3549,8,4330.5,-17.3549,0,29,6,0,0,33.0,0.9417957862352193,50.433575954087445,60.637581181218515,-12.545194084084017,0.006723200492414462
3,0,2,504,3,0,56.30039,49,5192.5,-7.30039,0,30,6,0,0,33.0,0.9417957862352193,50.433575954087445,60.637581181218515,-9.074389304918874,0.0019595090642412706
3,0,5,329,5,2,87.0672,100,1915.6000000238416,12.9328,1,31,6,0,0,33.0,0.9417957862352193,50.433575954087445,60.637581181218515,4.6131149599872,0.0012601504805160471
3,0,3,710,2,2,31.58063,16,3930.600000023842,-15.58063,1,32,6,0,0,33.0,0.9417957862352193,50.433575954087445,60.637581181218515,-12.095454717835327,0.004942352379681074
3,0,0,550,3,2,50.0,50,8163.700000047684,0.0,1,33,6,0,0,33.0,0.9417957862352193,50.433575954087445,60.637581181218515,-0.43357595408744487,1.3121318636332177e-05
3,0,1,390,4,0,74.79787,87,1970.3000000715256,12.202129999999997,1,34,6,0,0,33.0,0.9417957862352193,50.433575954087445,60.637581181218515,6.492761200886832,0.0015602318886625206
3,0,4,1000,1,2,6.87518,0,1932.2999999523165,-6.87518,1,35,6,0,0,33.0,0.9417957862352193,50.433575954087445,60.637581181218515,1.8661241430407771,0.0001238067376013124
3,0,2,774,2,0,25.3549,15,3676.399999976158,-10.3549,1,36,6,0,0,33.0,0.9417957862352193,50.433575954087445,60.637581181218515,-5.545194084084017,0.0014441492884725243
3,0,4,550,3,1,50.0,53,2781.099999904633,3.0,1,37,6,0,0,33.0,0.9417957862352193,50.433575954087445,60.637581181218515,2.566424045912555,0.00010282684876241103
3,0,2,843,1,0,19.19495,13,2091.2999999523163,-6.194949999999999,1,38,6,0,0,33.0,0.9417957862352193,50.433575954087445,60.637581181218515,-0.07470079096498594,1.8762166199199586e-05
3,0,1,774,2,2,25.3549,2,2005.1000000238416,-23.3549,1,39,6,0,0,33.0,0.9417957862352193,50.433575954087445,60.637581181218515,-18.545194084084017,0.014328939434133676
3,0,3,1000,1,2,6.87518,0,2381.399999976158,-6.87518,1,40,6,0,0,33.0,0.9417957862352193,50.433575954087445,60.637581181218515,1.8661241430407771,0.0001238067376013124
3,0,0,710,2,2,31.58063,47,4684.5,15.41937,1,41,6,0,0,33.0,0.9417957862352193,50.433575954087445,60.637581181218515,18.904545282164673,0.01065249425517797
3,0,1,1000,1,2,6.87518,0,2365.399999976158,-6.87518,1,42,6,0,0,33.0,0.9417957862352193,50.433575954087445,60.637581181218515,1.8661241430407771,0.0001238067376013124
3,0,4,463,4,1,62.42097,77,2523.9000000953674,14.579030000000003,1,43,6,0,0,33.0,0.9417957862352193,50.433575954087445,60.637581181218515,11.502870986279518,0.003225666181217591
3,0,0,1000,1,0,6.87518,9,3623.799999952316,2.1248199999999997,1,44,6,0,0,33.0,0.9417957862352193,50.433575954087445,60.637581181218515,10.866124143040777,0.008260637629989059
3,0,2,550,3,1,50.0,84,3866.899999976158,34.0,1,45,6,0,0,33.0,0.9417957862352193,50.433575954087445,60.637581181218515,33.566424045912555,0.023212002436413467
3,0,0,390,4,0,74.79787,100,2731.5,25.202129999999997,1,46,6,0,0,33.0,0.9417957862352193,50.433575954087445,60.637581181218515,19.492761200886832,0.0146957622310031
3,0,5,843,1,2,19.19495,6,3752.700000047684,-13.194949999999999,1,47,6,0,0,33.0,0.9417957862352193,50.433575954087445,60.637581181218515,-7.074700790964986,0.002897498766003468
3,0,0,329,5,2,87.0672,100,2289.0,12.9328,1,48,6,0,0,33.0,0.9417957862352193,50.433575954087445,60.637581181218515,4.6131149599872,0.0012601504805160471
3,0,1,504,3,2,56.30039,50,6356.399999976158,-6.30039,1,49,6,0,0,33.0,0.9417957862352193,50.433575954087445,60.637581181218515,-8.074389304918874,0.001564499706769845
3,0,2,302,5,0,93.24415,100,2473.599999904633,6.755849999999995,1,50,6,0,0,33.0,0.9417957862352193,50.433575954087445,60.637581181218515,-2.8779932681083693,0.0006964557860627714
3,0,5,599,3,1,43.84378,48,3385.899999976158,4.156219999999998,1,51,6,0,0,33.0,0.9417957862352193,50.433575954087445,60.637581181218515,5.032388898946117,0.00047808577475977695
3,0,4,329,5,2,87.0672,100,2068.3000000715256,12.9328,1,52,6,0,0,33.0,0.9417957862352193,50.433575954087445,60.637581181218515,4.6131149599872,0.0012601504805160471
3,0,5,652,2,0,37.72798,48,8285.0,10.272019999999998,1,53,6,0,0,33.0,0.9417957862352193,50.433575954087445,60.637581181218515,12.449332940661883,0.0037011794651374604
3,0,1,358,5,1,80.9736,79,1689.899999976158,-1.9736000000000047,1,54,6,0,0,33.0,0.9417957862352193,50.433575954087445,60.637581181218515,-8.996861532304408,0.004209443327440842
3,0,3,463,4,0,62.42097,52,3940.8000000715256,-10.420969999999997,1,55,6,0,0,33.0,0.9417957862352193,50.433575954087445,60.637581181218515,-13.497129013720482,0.004865278539008262
3,0,4,710,2,2,31.58063,22,2617.6999999284744,-9.58063,1,56,6,0,0,33.0,0.9417957862352193,50.433575954087445,60.637581181218515,-6.095454717835327,0.0013482663072080779
3,0,3,302,5,0,93.24415,100,2194.700000047684,6.755849999999995,1,57,6,0,0,33.0,0.9417957862352193,50.433575954087445,60.637581181218515,-2.8779932681083693,0.0006964557860627714
3,0,2,390,4,1,74.79787,50,7745.400000095367,-24.797870000000003,1,58,6,0,0,33.0,0.9417957862352193,50.433575954087445,60.637581181218515,-30.507238799113168,0.03728987928933385
3,0,3,599,3,0,43.84378,48,2038.700000047684,4.156219999999998,1,59,6,0,0,33.0,0.9417957862352193,50.433575954087445,60.637581181218515,5.032388898946117,0.00047808577475977695
3,0,5,463,4,1,62.42097,55,2549.899999976158,-7.420969999999997,1,60,6,0,0,33.0,0.9417957862352193,50.433575954087445,60.637581181218515,-10.497129013720482,0.002977444971287855
3,0,1,425,4,1,68.59844,55,2230.099999904633,-13.598439999999997,2,61,6,0,0,33.0,0.9417957862352193,50.433575954087445,60.637581181218515,-17.988862889767702,0.010432998643416383
3,0,5,1000,1,0,6.87518,4,3208.7999999523163,-2.8751800000000003,2,62,6,0,0,33.0,0.9417957862352193,50.433575954087445,60.637581181218515,5.866124143040777,0.0021693490094782902
3,0,4,390,4,0,74.79787,78,2929.100000023842,3.202129999999997,2,63,6,0,0,33.0,0.9417957862352193,50.433575954087445,60.637581181218515,-2.5072387991131677,0.0002917257554959687
3,0,0,599,3,1,43.84378,48,6500.599999904633,4.156219999999998,2,64,6,0,0,33.0,0.9417957862352193,50.433575954087445,60.637581181218515,5.032388898946117,0.00047808577475977695
3,0,2,463,4,2,62.42097,46,9607.799999952316,-16.420969999999997,2,65,6,0,0,33.0,0.9417957862352193,50.433575954087445,60.637581181218515,-19.497129013720482,0.010024556652909961
3,0,4,652,2,0,37.72798,39,2240.399999976158,1.2720199999999977,2,66,6,0,0,33.0,0.9417957862352193,50.433575954087445,60.637581181218515,3.4493329406618827,0.00023373888979494252
3,0,0,425,4,1,68.59844,73,1514.3000000715256,4.4015600000000035,2,67,6,0,0,33.0,0.9417957862352193,50.433575954087445,60.637581181218515,0.011137110232297687,1.7340768908241453e-06
3,0,1,710,2,1,31.58063,36,3117.899999976158,4.419370000000001,2,68,6,0,0,33.0,0.9417957862352193,50.433575954087445,60.637581181218515,7.904545282164673,0.0017340451402335381
3,0,3,550,3,2,50.0,62,1363.399999976158,12.0,2,69,6,0,0,33.0,0.9417957862352193,50.433575954087445,60.637581181218515,11.566424045912555,0.0026448842283679813
3,0,0,358,5,0,80.9736,99,2293.899999976158,18.026399999999995,2,70,6,0,0,33.0,0.9417957862352193,50.433575954087445,60.637581181218515,11.003138467695592,0.0058713341454154945
3,0,1,550,3,1,50.0,48,2189.2999999523163,-2.0,2,71,6,0,0,33.0,0.9417957862352193,50.433575954087445,60.637581181218515,-2.433575954087445,0.00016377511236962536
3,0,0,774,2,1,25.3549,14,1659.600000023842,-11.3549,2,72,6,0,0,33.0,0.9417957862352193,50.433575954087445,60.637581181218515,-6.545194084084017,0.0019613119289435396
3,0,2,599,3,2,43.84378,47,1436.0,3.1562199999999976,2,73,6,0,0,33.0,0.9417957862352193,50.433575954087445,60.637581181218515,4.032388898946117,0.0002942211070025405
3,0,4,358,5,0,80.9736,90,3027.2999999523163,9.026399999999995,2,74,6,0,0,33.0,0.9417957862352193,50.433575954087445,60.637581181218515,2.0031384676955923,0.0001676363833272336
3,0,3,390,4,1,74.79787,73,1853.0,-1.7978700000000032,2,75,6,0,0,33.0,0.9417957862352193,50.433575954087445,60.637581181218515,-7.507238799113168,0.002353528305637707
3,0,0,843,1,1,19.19495,10,2517.6999999284744,-9.194949999999999,2,76,6,0,0,33.0,0.9417957862352193,50.433575954087445,60.637581181218515,-3.074700790964986,0.0006525206449615245
3,0,5,390,4,2,74.79787,87,1325.5,12.202129999999997,2,77,6,0,0,33.0,0.9417957862352193,50.433575954087445,60.637581181218515,6.492761200886832,0.0015602318886625206
3,0,2,710,2,2,31.58063,33,3807.799999952316,1.4193700000000007,2,78,6,0,0,33.0,0.9417957862352193,50.433575954087445,60.637581181218515,4.904545282164673,0.000617537786477151
3,0,5,358,5,0,80.9736,93,1844.0,12.026399999999995,2,79,6,0,0,33.0,0.9417957862352193,50.433575954087445,60.637581181218515,5.003138467695592,0.0011678058990536842
3,0,1,843,1,1,19.19495,18,2568.8000000715256,-1.1949499999999986,2,80,6,0,0,33.0,0.9417957862352193,50.433575954087445,60.637581181218515,4.925299209035014,0.0009624506292508166
3,0,5,550,3,0,50.0,50,5929.699999928474,0.0,2,81,6,0,0,33.0,0.9417957862352193,50.433575954087445,60.637581181218515,-0.43357595408744487,1.3121318636332177e-05
3,0,1,329,5,2,87.0672,86,1338.7999999523165,-1.0671999999999997,2,82,6,0,0,33.0,0.9417957862352193,50.433575954087445,60.637581181218515,-9.3868850400128,0.005705653731983712
3,0,3,843,1,0,19.19495,0,1465.600000023842,-19.19495,2,83,6,0,0,33.0,0.9417957862352193,50.433575954087445,60.637581181218515,-13.074700790964986,0.00926489483904962
3,0,5,710,2,1,31.58063,44,2598.600000023842,12.41937,2,84,6,0,0,33.0,0.9417957862352193,50.433575954087445,60.637581181218515,15.904545282164673,0.00746830597949115
3,0,3,358,5,2,80.9736,92,1523.7999999523165,11.026399999999995,2,85,6,0,0,33.0,0.9417957862352193,50.433575954087445,60.637581181218515,4.003138467695592,0.0007342979414075003
3,0,4,843,1,1,19.19495,7,1888.2999999523165,-12.194949999999999,2,86,6,0,0,33.0,0.9417957862352193,50.433575954087445,60.637581181218515,-6.074700790964986,0.0021862577911688206
3,0,3,652,2,1,37.72798,42,5113.799999952316,4.272019999999998,2,87,6,0,0,33.0,0.9417957862352193,50.433575954087445,60.637581181218515,6.449332940661883,0.0009285095227541283
3,0,2,918,1,1,13.04687,3,1530.8000000715256,-10.04687,2,88,6,0,0,33.0,0.9417957862352193,50.433575954087445,60.637581181218515,-2.6186114899195045,0.0006417449387627586
3,0,4,599,3,2,43.84378,63,4493.199999928474,19.156219999999998,2,89,6,0,0,33.0,0.9417957862352193,50.433575954087445,60.637581181218515,20.032388898946117,0.00856543647953019
3,0,2,358,5,2,80.9736,89,1983.3000000715256,8.026399999999995,2,90,6,0,0,33.0,0.9417957862352193,50.433575954087445,60.637581181218515,1.0031384676955923,3.448278289315078e-05
3,0,0,329,5,0,87.0672,99,3181.100000023842,11.9328,3,91,6,0,0,33.0,0.9417957862352193,50.433575954087445,60.637581181218515,3.6131149599872003,0.0007599709942155675
3,0,2,710,2,1,31.58063,25,2180.6999999284744,-6.580629999999999,3,92,6,0,0,33.0,0.9417957862352193,50.433575954087445,60.637581181218515,-3.0954547178353273,0.0003970927390340309
3,0,3,329,5,1,87.0672,89,2281.399999976158,1.9328000000000003,3,93,6,0,0,33.0,0.9417957862352193,50.433575954087445,60.637581181218515,-6.3868850400128,0.0026773067167282544
3,0,0,918,1,1,13.04687,15,2733.600000023842,1.9531299999999998,3,94,6,0,0,33.0,0.9417957862352193,50.433575954087445,60.637581181218515,9.381388510080495,0.004883158508346262
3,0,5,652,2,0,37.72798,33,5407.5,-4.727980000000002,3,95,6,0,0,33.0,0.9417957862352193,50.433575954087445,60.637581181218515,-2.5506670593381173,0.00022732630034153297
3,0,1,329,5,2,87.0672,92,2520.899999976158,4.9328,3,96,6,0,0,33.0,0.9417957862352193,50.433575954087445,60.637581181218515,-3.3868850400127997,0.0007811810700120199
3,0,5,390,4,0,74.79787,89,2124.8000000715256,14.202129999999997,3,97,6,0,0,33.0,0.9417957862352193,50.433575954087445,60.637581181218515,8.492761200886832,0.00271160242551919
3,0,0,774,2,1,25.3549,9,2140.6999999284744,-16.3549,3,98,6,0,0,33.0,0.9417957862352193,50.433575954087445,60.637581181218515,-11.545194084084017,0.00573206278890207
3,0,1,463,4,2,62.42097,49,14730.5,-13.420969999999997,3,99,6,0,0,33.0,0.9417957862352193,50.433575954087445,60.637581181218515,-16.497129013720482,0.007214315766215629
3,0,4,504,3,1,56.30039,50,9288.200000047684,-6.30039,3,100,6,0,0,33.0,0.9417957862352193,50.433575954087445,60.637581181218515,-8.074389304918874,0.001564499706769845
3,0,0,390,4,0,74.79787,85,2092.200000047684,10.202129999999997,3,101,6,0,0,33.0,0.9417957862352193,50.433575954087445,60.637581181218515,4.492761200886832,0.0007250360009119887
3,0,2,918,1,0,13.04687,7,1911.0,-6.04687,3,102,6,0,0,33.0,0.9417957862352193,50.433575954087445,60.637581181218515,1.3813885100804955,4.1020735944789326e-05
3,0,3,599,3,1,43.84378,39,8551.699999928474,-4.843780000000002,3,103,6,0,0,33.0,0.9417957862352193,50.433575954087445,60.637581181218515,-3.9676111010538833,0.00042211797146820743
3,0,2,302,5,0,93.24415,100,1552.600000023842,6.755849999999995,3,104,6,0,0,33.0,0.9417957862352193,50.433575954087445,60.637581181218515,-2.8779932681083693,0.0006964557860627714
3,0,1,1000,1,1,6.87518,0,7023.100000023842,-6.87518,3,105,6,0,0,33.0,0.9417957862352193,50.433575954087445,60.637581181218515,1.8661241430407771,0.0001238067376013124
3,0,4,329,5,2,87.0672,94,2445.8000000715256,6.9328,3,106,6,0,0,33.0,0.9417957862352193,50.433575954087445,60.637581181218515,-1.3868850400127997,0.0001461091769452106
3,0,3,843,1,1,19.19495,28,1359.899999976158,8.805050000000001,3,107,6,0,0,33.0,0.9417957862352193,50.433575954087445,60.637581181218515,14.925299209035014,0.010349649784062142
3,0,5,504,3,2,56.30039,55,8910.0,-1.3003900000000002,3,108,6,0,0,33.0,0.9417957862352193,50.433575954087445,60.637581181218515,-3.074389304918874,0.00025570668739030805
3,0,4,1000,1,2,6.87518,11,1871.1000000238416,4.12482,3,109,6,0,0,33.0,0.9417957862352193,50.433575954087445,60.637581181218515,12.866124143040777,0.011796731987733448
3,0,5,329,5,2,87.0672,98,1583.2999999523165,10.9328,3,110,6,0,0,33.0,0.9417957862352193,50.433575954087445,60.637581181218515,2.6131149599872003,0.0003855938821972242
3,0,1,710,2,2,31.58063,26,1494.100000023842,-5.580629999999999,3,111,6,0,0,33.0,0.9417957862352193,50.433575954087445,60.637581181218515,-2.0954547178353273,0.00020534887824452637
3,0,5,918,1,0,13.04687,14,3135.599999904633,0.9531299999999998,3,112,6,0,0,33.0,0.9417957862352193,50.433575954087445,60.637581181218515,8.381388510080495,0.0038372131279808494
3,0,4,390,4,2,74.79787,79,3430.700000047684,4.202129999999997,3,113,6,0,0,33.0,0.9417957862352193,50.433575954087445,60.637581181218515,-1.5072387991131677,0.00011649623229722488
3,0,1,504,3,0,56.30039,52,3640.299999952316,-4.30039,3,114,6,0,0,33.0,0.9417957862352193,50.433575954087445,60.637581181218515,-6.074389304918874,0.0009077317454225126
3,0,3,390,4,0,74.79787,90,1892.0,15.202129999999997,3,115,6,0,0,33.0,0.9417957862352193,50.433575954087445,60.637581181218515,9.492761200886832,0.0034058531873623274
3,0,0,504,3,1,56.30039,52,1985.200000047684,-4.30039,3,116,6,0,0,33.0,0.9417957862352193,50.433575954087445,60.637581181218515,-6.074389304918874,0.0009077317454225126
3,0,2,390,4,2,74.79787,72,1239.9000000953674,-2.797870000000003,3,117,6,0,0,33.0,0.9417957862352193,50.433575954087445,60.637581181218515,-8.507238799113168,0.0030030198024956585
3,0,4,652,2,1,37.72798,29,3341.7999999523163,-8.727980000000002,3,118,6,0,0,33.0,0.9417957862352193,50.433575954087445,60.637581181218515,-6.550667059338117,0.0012475910010503427
3,0,2,550,3,0,50.0,48,2791.399999976158,-2.0,3,119,6,0,0,33.0,0.9417957862352193,50.433575954087445,60.637581181218515,-2.433575954087445,0.00016377511236962536
3,0,3,774,2,1,25.3549,26,2412.399999976158,0.6450999999999993,3,120,6,0,0,33.0,0.9417957862352193,50.433575954087445,60.637581181218515,5.454805915915983,0.0009690859367465566
3,0,5,358,5,1,80.9736,95,1412.0,14.026399999999995,4,121,6,0,0,33.0,0.9417957862352193,50.433575954087445,60.637581181218515,7.003138467695592,0.0023351761715581527
3,0,1,652,2,1,37.72798,11,1862.5,-26.727980000000002,4,122,6,0,0,33.0,0.9417957862352193,50.433575954087445,60.637581181218515,-24.550667059338117,0.01598172578164971
3,0,2,329,5,1,87.0672,100,2166.600000023842,12.9328,4,123,6,0,0,33.0,0.9417957862352193,50.433575954087445,60.637581181218515,4.6131149599872,0.0012601504805160471
3,0,1,550,3,1,50.0,45,2207.700000047684,-5.0,4,124,6,0,0,33.0,0.9417957862352193,50.433575954087445,60.637581181218515,-5.433575954087445,0.0007054420236955835
3,0,5,425,4,2,68.59844,53,3058.600000023842,-15.598439999999997,4,125,6,0,0,33.0,0.9417957862352193,50.433575954087445,60.637581181218515,-19.988862889767702,0.01284705551141005
3,0,4,550,3,0,50.0,38,2246.099999904633,-12.0,4,126,6,0,0,33.0,0.9417957862352193,50.433575954087445,60.637581181218515,-12.433575954087445,0.00344253384684424
3,0,2,843,1,1,19.19495,11,6897.699999928474,-8.194949999999999,4,127,6,0,0,33.0,0.9417957862352193,50.433575954087445,60.637581181218515,-2.074700790964986,0.0003412701889913082
3,0,5,550,3,1,50.0,64,3046.599999904633,14.0,4,128,6,0,0,33.0,0.9417957862352193,50.433575954087445,60.637581181218515,13.566424045912555,0.0036727923253451573
3,0,4,774,2,2,25.3549,35,1755.7000000476835,9.6451,4,129,6,0,0,33.0,0.9417957862352193,50.433575954087445,60.637581181218515,14.454805915915983,0.007690023685500577
3,0,3,504,3,2,56.30039,85,1378.5999999046326,28.69961,4,130,6,0,0,33.0,0.9417957862352193,50.433575954087445,60.637581181218515,26.925610695081126,0.015721830450328707
3,0,4,302,5,0,93.24415,100,2039.0,6.755849999999995,4,131,6,0,0,33.0,0.9417957862352193,50.433575954087445,60.637581181218515,-2.8779932681083693,0.0006964557860627714
3,0,0,599,3,0,43.84378,37,3781.0,-6.843780000000002,4,132,6,0,0,33.0,0.9417957862352193,50.433575954087445,60.637581181218515,-5.967611101053883,0.0008982072449522795
3,0,3,652,2,0,37.72798,45,5240.699999928474,7.272019999999998,4,133,6,0,0,33.0,0.9417957862352193,50.433575954087445,60.637581181218515,9.449332940661883,0.002084323047868301
3,0,0,1000,1,0,6.87518,0,2985.5,-6.87518,4,134,6,0,0,33.0,0.9417957862352193,50.433575954087445,60.637581181218515,1.8661241430407771,0.0001238067376013124
3,0,2,774,2,2,25.3549,29,2152.4000000953674,3.6450999999999993,4,135,6,0,0,33.0,0.9417957862352193,50.433575954087445,60.637581181218515,8.454805915915983,0.0024984359251024905
3,0,5,843,1,2,19.19495,19,2833.5,-0.19494999999999862,4,136,6,0,0,33.0,0.9417957862352193,50.433575954087445,60.637581181218515,5.925299209035014,0.0014511812110094638
3,0,1,425,4,0,68.59844,83,2548.100000023842,14.401560000000003,4,137,6,0,0,33.0,0.9417957862352193,50.433575954087445,60.637581181218515,10.011137110232298,0.002991779397479061
3,0,4,843,1,0,19.19495,2,1915.8000000715256,-17.19495,4,138,6,0,0,33.0,0.9417957862352193,50.433575954087445,60.637581181218515,-11.074700790964986,0.006742438962503139
3,0,1,358,5,1,80.9736,95,1450.6999999284744,14.026399999999995,4,139,6,0,0,33.0,0.9417957862352193,50.433575954087445,60.637581181218515,7.003138467695592,0.0023351761715581527
3,0,0,425,4,2,68.59844,92,3232.7999999523163,23.401560000000003,4,140,6,0,0,33.0,0.9417957862352193,50.433575954087445,60.637581181218515,19.011137110232298,0.01104806262758175
3,0,1,918,1,2,13.04687,10,1338.7000000476835,-3.04687,4,141,6,0,0,33.0,0.9417957862352193,50.433575954087445,60.637581181218515,4.3813885100804955,0.0009125120602769957
3,0,4,463,4,1,62.42097,84,1558.5,21.579030000000003,4,142,6,0,0,33.0,0.9417957862352193,50.433575954087445,60.637581181218515,18.502870986279518,0.00850599803909617
3,0,0,710,2,2,31.58063,25,11178.0,-6.580629999999999,4,143,6,0,0,33.0,0.9417957862352193,50.433575954087445,60.637581181218515,-3.0954547178353273,0.0003970927390340309
3,0,3,463,4,2,62.42097,87,2062.0,24.579030000000003,4,144,6,0,0,33.0,0.9417957862352193,50.433575954087445,60.637581181218515,21.502870986279518,0.011537670172570019
3,0,2,504,3,2,56.30039,53,1947.1999999284744,-3.30039,4,145,6,0,0,33.0,0.9417957862352193,50.433575954087445,60.637581181218515,-5.074389304918874,0.000645973141546605
3,0,3,918,1,2,13.04687,7,2085.6999999284744,-6.04687,4,146,6,0,0,33.0,0.9417957862352193,50.433575954087445,60.637581181218515,1.3813885100804955,4.1020735944789326e-05
3,0,2,463,4,1,62.42097,82,1945.5999999046328,19.579030000000003,4,147,6,0,0,33.0,0.9417957862352193,50.433575954087445,60.637581181218515,16.502870986279518,0.0067411075387174705
3,0,3,358,5,0,80.9736,100,2115.0,19.026399999999995,4,148,6,0,0,33.0,0.9417957862352193,50.433575954087445,60.637581181218515,12.003138467695592,0.007005668936556582
3,0,5,774,2,2,25.3549,4,1902.3000000715256,-21.3549,4,149,6,0,0,33.0,0.9417957862352193,50.433575954087445,60.637581181218515,-16.545194084084017,0.011477709744866352
3,0,0,358,5,1,80.9736,100,2325.0,19.026399999999995,4,150,6,0,0,33.0,0.9417957862352193,50.433575954087445,60.637581181218515,12.003138467695592,0.007005668936556582
3,0,2,599,3,1,43.84378,24,1293.0,-19.843780000000002,5,151,6,0,0,33.0,0.9417957862352193,50.433575954087445,60.637581181218515,-18.967611101053883,0.008322909331933389
3,0,0,843,1,2,19.19495,2,1429.899999976158,-17.19495,5,152,6,0,0,33.0,0.9417957862352193,50.433575954087445,60.637581181218515,-11.074700790964986,0.006742438962503139
3,0,5,463,4,1,62.42097,96,1751.0,33.57903,5,153,6,0,0,33.0,0.9417957862352193,50.433575954087445,60.637581181218515,30.502870986279518,0.023399908529913336
3,0,0,550,3,2,50.0,48,3586.5,-2.0,5,154,6,0,0,33.0,0.9417957862352193,50.433575954087445,60.637581181218515,-2.433575954087445,0.00016377511236962536
3,0,5,302,5,0,93.24415,100,3140.8000000715256,6.755849999999995,5,155,6,0,0,33.0,0.9417957862352193,50.433575954087445,60.637581181218515,-2.8779932681083693,0.0006964557860627714
3,0,4,599,3,2,43.84378,47,2696.700000047684,3.1562199999999976,5,156,6,0,0,33.0,0.9417957862352193,50.433575954087445,60.637581181218515,4.032388898946117,0.0002942211070025405
3,0,1,774,2,0,25.3549,13,1756.6999999284744,-12.3549,5,157,6,0,0,33.0,0.9417957862352193,50.433575954087445,60.637581181218515,-7.545194084084017,0.0025574704132547837
3,0,5,599,3,0,43.84378,48,6742.100000023842,4.156219999999998,5,158,6,0,0,33.0,0.9417957862352193,50.433575954087445,60.637581181218515,5.032388898946117,0.00047808577475977695
3,0,4,918,1,1,13.04687,0,2276.100000023842,-13.04687,5,159,6,0,0,33.0,0.9417957862352193,50.433575954087445,60.637581181218515,-5.6186114899195045,0.0024143225673219186
3,0,3,550,3,0,50.0,81,2252.0,31.0,5,160,6,0,0,33.0,0.9417957862352193,50.433575954087445,60.637581181218515,30.566424045912555,0.019207787769284754
3,0,0,302,5,2,93.24415,100,1852.5,6.755849999999995,5,161,6,0,0,33.0,0.9417957862352193,50.433575954087445,60.637581181218515,-2.8779932681083693,0.0006964557860627714
3,0,5,1000,1,1,6.87518,0,2937.899999976158,-6.87518,5,162,6,0,0,33.0,0.9417957862352193,50.433575954087445,60.637581181218515,1.8661241430407771,0.0001238067376013124
3,0,1,390,4,1,74.79787,92,1452.0,17.202129999999997,5,163,6,0,0,33.0,0.9417957862352193,50.433575954087445,60.637581181218515,11.492761200886832,0.0050314856978782045
3,0,2,358,5,2,80.9736,99,2331.700000047684,18.026399999999995,5,164,6,0,0,33.0,0.9417957862352193,50.433575954087445,60.637581181218515,11.003138467695592,0.0058713341454154945
3,0,1,599,3,2,43.84378,38,4259.0,-5.843780000000002,5,165,6,0,0,33.0,0.9417957862352193,50.433575954087445,60.637581181218515,-4.967611101053883,0.0006379568553418606
3,0,4,425,4,0,68.59844,72,1793.600000023842,3.4015600000000035,5,166,6,0,0,33.0,0.9417957862352193,50.433575954087445,60.637581181218515,-0.9888628897677023,4.786209955308823e-05
3,0,3,710,2,2,31.58063,8,2263.5,-23.58063,5,167,6,0,0,33.0,0.9417957862352193,50.433575954087445,60.637581181218515,-20.095454717835327,0.013243259010496711
3,0,0,463,4,1,62.42097,82,3557.6999999284744,19.579030000000003,5,168,6,0,0,33.0,0.9417957862352193,50.433575954087445,60.637581181218515,16.502870986279518,0.0067411075387174705
3,0,4,358,5,1,80.9736,97,1488.7999999523165,16.026399999999995,5,169,6,0,0,33.0,0.9417957862352193,50.433575954087445,60.637581181218515,9.003138467695592,0.0039030189203454234
3,0,2,425,4,0,68.59844,54,2023.6000000238416,-14.598439999999997,5,170,6,0,0,33.0,0.9417957862352193,50.433575954087445,60.637581181218515,-18.988862889767702,0.011608651390620386
3,0,5,710,2,1,31.58063,7,2379.5,-24.58063,5,171,6,0,0,33.0,0.9417957862352193,50.433575954087445,60.637581181218515,-21.095454717835327,0.014562828828702818
3,0,3,1000,1,0,6.87518,3,3914.099999904633,-3.8751800000000003,5,172,6,0,0,33.0,0.9417957862352193,50.433575954087445,60.637581181218515,4.866124143040777,0.0014223393894647425
3,0,4,710,2,0,31.58063,44,8921.0,12.41937,5,173,6,0,0,33.0,0.9417957862352193,50.433575954087445,60.637581181218515,15.904545282164673,0.00746830597949115
3,0,1,843,1,0,19.19495,29,1420.5,9.805050000000001,5,174,6,0,0,33.0,0.9417957862352193,50.433575954087445,60.637581181218515,15.925299209035014,0.011838356662981869
3,0,3,302,5,2,93.24415,99,1660.1999999284744,5.755849999999995,5,175,6,0,0,33.0,0.9417957862352193,50.433575954087445,60.637581181218515,-3.8779932681083693,0.0012425684011959878
3,0,2,1000,1,2,6.87518,8,5495.600000023842,1.1248199999999997,5,176,6,0,0,33.0,0.9417957862352193,50.433575954087445,60.637581181218515,9.866124143040777,0.006728214503161168
3,0,0,652,2,0,37.72798,66,1660.399999976158,28.272019999999998,5,177,6,0,0,33.0,0.9417957862352193,50.433575954087445,60.637581181218515,30.449332940661883,0.023084218704007148
3,0,3,425,4,1,68.59844,99,2011.399999976158,30.401560000000003,5,178,6,0,0,33.0,0.9417957862352193,50.433575954087445,60.637581181218515,26.011137110232298,0.02082813761623592
3,0,2,652,2,0,37.72798,48,3607.0,10.272019999999998,5,179,6,0,0,33.0,0.9417957862352193,50.433575954087445,60.637581181218515,12.449332940661883,0.0037011794651374604
3,0,1,302,5,0,93.24415,100,1653.8000000715256,6.755849999999995,5,180,6,0,0,33.0,0.9417957862352193,50.433575954087445,60.637581181218515,-2.8779932681083693,0.0006964557860627714
6,1,2,652,2,2,37.72798,49,4834.5,11.272019999999998,0,1,6,0,0,31.0,0.9399546257926663,52.03024556075485,47.72448779418185,8.683269227486441,0.002776965922383699
6,1,5,599,3,2,43.84378,48,4639.60000000149,4.156219999999998,0,2,6,0,0,31.0,0.9399546257926663,52.03024556075485,47.72448779418185,1.8458026186001675,7.823775882272357e-05
6,1,4,302,5,1,93.24415,100,2580.20000000298,6.755849999999995,0,3,6,0,0,31.0,0.9399546257926663,52.03024556075485,47.72448779418185,6.693652965210802,0.007524473197152608
6,1,3,463,4,2,62.42097,74,1798.60000000149,11.579030000000003,0,4,6,0,0,31.0,0.9399546257926663,52.03024556075485,47.72448779418185,10.114064615751083,0.0043960875068546216
6,1,5,329,5,2,87.0672,100,2274.6999999955297,12.9328,0,5,6,0,0,31.0,0.9399546257926663,52.03024556075485,47.72448779418185,12.589490105023614,0.0184348690659803
6,1,0,843,1,0,19.19495,28,1322.5,8.805050000000001,0,6,6,0,0,31.0,0.9399546257926663,52.03024556075485,47.72448779418185,5.372859691719093,0.0015318298359335032
6,1,4,550,3,2,50.0,50,8369.5,0.0,0,7,6,0,0,31.0,0.9399546257926663,52.03024556075485,47.72448779418185,-2.0302455607548495,0.00017314765006946689
6,1,5,918,1,2,13.04687,0,3257.5,-13.04687,0,8,6,0,0,31.0,0.9399546257926663,52.03024556075485,47.72448779418185,-16.758864629925025,0.03327790887842474
6,1,1,358,5,1,80.9736,97,2715.70000000298,16.026399999999995,0,9,6,0,0,31.0,0.9399546257926663,52.03024556075485,47.72448779418185,15.405769049896577,0.0210603732045936
6,1,3,843,1,0,19.19495,29,4040.0,9.805050000000001,0,10,6,0,0,31.0,0.9399546257926663,52.03024556075485,47.72448779418185,6.372859691719093,0.0023217583476832764
6,1,2,425,4,2,68.59844,73,1226.39999999851,4.4015600000000035,0,11,6,0,0,31.0,0.9399546257926663,52.03024556075485,47.72448779418185,3.2177350630245343,0.0006325440875354833
6,1,3,302,5,0,93.24415,100,2155.60000000149,6.755849999999995,0,12,6,0,0,31.0,0.9399546257926663,52.03024556075485,47.72448779418185,6.693652965210802,0.007524473197152608
6,1,2,1000,1,0,6.87518,23,1902.29999999702,16.12482,0,13,6,0,0,31.0,0.9399546257926663,52.03024556075485,47.72448779418185,12.13195699256623,0.014860460799360027
6,1,3,710,2,2,31.58063,38,1461.8000000044703,6.419370000000001,0,14,6,0,0,31.0,0.9399546257926663,52.03024556075485,47.72448779418185,3.550854699469049,0.0004135831806518841
6,1,4,843,1,0,19.19495,35,19933.29999999702,15.805050000000001,0,15,6,0,0,31.0,0.9399546257926663,52.03024556075485,47.72448779418185,12.372859691719093,0.01049821703642739
6,1,0,774,2,1,25.3549,43,51669.0,17.6451,0,16,6,0,0,31.0,0.9399546257926663,52.03024556075485,47.72448779418185,14.49324742752798,0.011980986729139362
6,1,2,599,3,2,43.84378,50,4990.89999999851,6.156219999999998,0,17,6,0,0,31.0,0.9399546257926663,52.03024556075485,47.72448779418185,3.8458026186001675,0.0004369043439641757
6,1,0,302,5,1,93.24415,100,1864.8000000044703,6.755849999999995,0,18,6,0,0,31.0,0.9399546257926663,52.03024556075485,47.72448779418185,6.693652965210802,0.007524473197152608
6,1,3,599,3,1,43.84378,49,2301.8000000044703,5.156219999999998,0,19,6,0,0,31.0,0.9399546257926663,52.03024556075485,47.72448779418185,2.8458026186001675,0.00022122796277471057
6,1,0,425,4,1,68.59844,80,1389.4000000059605,11.401560000000003,0,20,6,0,0,31.0,0.9399546257926663,52.03024556075485,47.72448779418185,10.217735063024534,0.005671926881950065
6,1,1,710,2,0,31.58063,37,1381.1999999955297,5.419370000000001,0,21,6,0,0,31.0,0.9399546257926663,52.03024556075485,47.72448779418185,2.550854699469049,0.0001736114190443172
6,1,4,390,4,2,74.79787,73,1827.6999999955297,-1.7978700000000032,0,22,6,0,0,31.0,0.9399546257926663,52.03024556075485,47.72448779418185,-2.6995629612041085,0.0003244587230397286
6,1,0,599,3,2,43.84378,50,5215.20000000298,6.156219999999998,0,23,6,0,0,31.0,0.9399546257926663,52.03024556075485,47.72448779418185,3.8458026186001675,0.0004369043439641757
6,1,1,390,4,1,74.79787,80,1232.5,5.202129999999997,0,24,6,0,0,31.0,0.9399546257926663,52.03024556075485,47.72448779418185,4.3004370387958915,0.0014657788496958415
6,1,4,774,2,2,25.3549,48,3397.6999999955297,22.6451,0,25,6,0,0,31.0,0.9399546257926663,52.03024556075485,47.72448779418185,19.49324742752798,0.022397681319788136
6,1,5,390,4,0,74.79787,63,2866.39999999851,-11.797870000000003,0,26,6,0,0,31.0,0.9399546257926663,52.03024556075485,47.72448779418185,-12.699562961204109,0.009690193304598789
6,1,1,843,1,0,19.19495,34,1315.6999999955297,14.805050000000001,0,27,6,0,0,31.0,0.9399546257926663,52.03024556075485,47.72448779418185,11.372859691719093,0.00872632063375034
6,1,5,774,2,0,25.3549,29,2566.20000000298,3.6450999999999993,0,28,6,0,0,31.0,0.9399546257926663,52.03024556075485,47.72448779418185,0.49324742752797945,9.639168919891714e-06
6,1,2,358,5,2,80.9736,85,3744.60000000149,4.026399999999995,0,29,6,0,0,31.0,0.9399546257926663,52.03024556075485,47.72448779418185,3.405769049896577,0.001332555683926216
6,1,1,504,3,0,56.30039,50,7463.5,-6.30039,0,30,6,0,0,31.0,0.9399546257926663,52.03024556075485,47.72448779418185,-8.043907326213294,0.0023759731370995023
6,1,0,463,4,0,62.42097,70,1422.60000000149,7.579030000000003,1,31,6,0,0,31.0,0.9399546257926663,52.03024556075485,47.72448779418185,6.114064615751083,0.0016321684375536218
6,1,1,774,2,2,25.3549,32,2188.0,6.645099999999999,1,32,6,0,0,31.0,0.9399546257926663,52.03024556075485,47.72448779418185,3.4932474275279795,0.00044166435780637766
6,1,5,1000,1,0,6.87518,0,12262.39999999851,-6.87518,1,33,6,0,0,31.0,0.9399546257926663,52.03024556075485,47.72448779418185,-10.86804300743377,0.019283500329658837
6,1,3,550,3,0,50.0,50,4017.5,0.0,1,34,6,0,0,31.0,0.9399546257926663,52.03024556075485,47.72448779418185,-2.0302455607548495,0.00017314765006946689
6,1,4,1000,1,2,6.87518,0,2129.0,-6.87518,1,35,6,0,0,31.0,0.9399546257926663,52.03024556075485,47.72448779418185,-10.86804300743377,0.019283500329658837
6,1,0,504,3,1,56.30039,58,2801.0,1.6996099999999998,1,36,6,0,0,31.0,0.9399546257926663,52.03024556075485,47.72448779418185,-0.04390732621329363,2.6299765725743733e-07
6,1,3,329,5,2,87.0672,100,1538.2999999970198,12.9328,1,37,6,0,0,31.0,0.9399546257926663,52.03024556075485,47.72448779418185,12.589490105023614,0.0184348690659803
6,1,0,918,1,1,13.04687,0,2360.89999999851,-13.04687,1,38,6,0,0,31.0,0.9399546257926663,52.03024556075485,47.72448779418185,-16.758864629925025,0.03327790887842474
6,1,2,504,3,1,56.30039,55,1716.1999999955297,-1.3003900000000002,1,39,6,0,0,31.0,0.9399546257926663,52.03024556075485,47.72448779418185,-3.0439073262132936,0.00034594153738838965
6,1,0,652,2,0,37.72798,27,3395.39999999851,-10.727980000000002,1,40,6,0,0,31.0,0.9399546257926663,52.03024556075485,47.72448779418185,-13.316730772513559,0.00805401340400919
6,1,4,463,4,1,62.42097,57,1301.2999999970198,-5.420969999999997,1,41,6,0,0,31.0,0.9399546257926663,52.03024556075485,47.72448779418185,-6.885935384248917,0.001917064820393465
6,1,0,329,5,0,87.0672,100,1493.1999999955297,12.9328,1,42,6,0,0,31.0,0.9399546257926663,52.03024556075485,47.72448779418185,12.589490105023614,0.0184348690659803
6,1,4,710,2,0,31.58063,27,2120.89999999851,-4.580629999999999,1,43,6,0,0,31.0,0.9399546257926663,52.03024556075485,47.72448779418185,-7.449145300530951,0.0034140171399552575
6,1,5,302,5,1,93.24415,100,1546.10000000149,6.755849999999995,1,44,6,0,0,31.0,0.9399546257926663,52.03024556075485,47.72448779418185,6.693652965210802,0.007524473197152608
6,1,3,652,2,1,37.72798,35,2525.29999999702,-2.7279800000000023,1,45,6,0,0,31.0,0.9399546257926663,52.03024556075485,47.72448779418185,-5.316730772513559,0.0014400050713121327
6,1,4,358,5,2,80.9736,77,1394.39999999851,-3.9736000000000047,1,46,6,0,0,31.0,0.9399546257926663,52.03024556075485,47.72448779418185,-4.594230950103423,0.0012893584801004542
6,1,3,918,1,1,13.04687,32,1116.5,18.95313,1,47,6,0,0,31.0,0.9399546257926663,52.03024556075485,47.72448779418185,15.241135370074975,0.020276482139526108
6,1,4,504,3,0,56.30039,49,3135.60000000149,-7.30039,1,48,6,0,0,31.0,0.9399546257926663,52.03024556075485,47.72448779418185,-9.043907326213294,0.0030000645620656087
6,1,1,425,4,0,68.59844,64,1195.6999999955297,-4.5984399999999965,1,49,6,0,0,31.0,0.9399546257926663,52.03024556075485,47.72448779418185,-5.782264936975466,0.0015478929862513214
6,1,2,843,1,1,19.19495,31,1488.5,11.805050000000001,1,50,6,0,0,31.0,0.9399546257926663,52.03024556075485,47.72448779418185,8.372859691719093,0.004392599316646462
6,1,3,390,4,0,74.79787,64,3284.0,-10.797870000000003,1,51,6,0,0,31.0,0.9399546257926663,52.03024556075485,47.72448779418185,-11.699562961204109,0.008171468510277108
6,1,1,550,3,1,50.0,50,2696.60000000149,0.0,1,52,6,0,0,31.0,0.9399546257926663,52.03024556075485,47.72448779418185,-2.0302455607548495,0.00017314765006946689
6,1,5,425,4,2,68.59844,59,2203.8000000044703,-9.598439999999997,1,53,6,0,0,31.0,0.9399546257926663,52.03024556075485,47.72448779418185,-10.782264936975466,0.005650995668922767
