subject,range,pitch,ioi,tempo,loudness,true_score,response,rt,error,block,trial,test_correct,test_incorrect,test_skipped,extreme_responses,pearsonr,intercept,slope,residual,cooks
1,0,4,918,1,1,13.04687,0,4321.299999952316,-13.04687,0,1,6,0,0,81.0,0.9003488741195169,649.3468209898551,-94.2649589691813,-6.252663883358893,0.002570504312745124
1,0,3,652,2,1,37.72798,24,3346.100000023842,-13.727980000000002,0,2,6,0,0,81.0,0.9003488741195169,649.3468209898551,-94.2649589691813,-14.505686241372807,0.0032514147872657246
1,0,2,1000,1,0,6.87518,0,2802.6999999284744,-6.87518,0,3,6,0,0,81.0,0.9003488741195169,649.3468209898551,-94.2649589691813,1.8124469525414737,6.208188297335675e-05
1,0,1,652,2,1,37.72798,43,3357.5,5.272019999999998,0,4,6,0,0,81.0,0.9003488741195169,649.3468209898551,-94.2649589691813,4.494313758627193,0.00013405788023161615
1,0,2,504,3,0,56.30039,55,3507.2999999523163,-1.3003900000000002,0,5,6,0,0,81.0,0.9003488741195169,649.3468209898551,-94.2649589691813,-7.7759243975063015,0.0007228648170063901
1,0,1,1000,1,0,6.87518,8,3862.3000000715256,1.1248199999999997,0,6,6,0,0,81.0,0.9003488741195169,649.3468209898551,-94.2649589691813,9.812446952541475,0.0018232919551404748
1,0,2,652,2,0,37.72798,44,2740.399999976158,6.272019999999998,0,7,6,0,0,81.0,0.9003488741195169,649.3468209898551,-94.2649589691813,5.494313758627193,0.00023070078375748523
1,0,5,1000,1,1,6.87518,0,3268.5,-6.87518,0,8,6,0,0,81.0,0.9003488741195169,649.3468209898551,-94.2649589691813,1.8124469525414737,6.208188297335675e-05
1,0,0,599,3,1,43.84378,49,8441.300000071526,5.156219999999998,0,9,6,0,0,81.0,0.9003488741195169,649.3468209898551,-94.2649589691813,2.502251153678479,2.771104997849104e-05
1,0,3,390,4,1,74.79787,80,4266.0,5.202129999999997,0,10,6,0,0,81.0,0.9003488741195169,649.3468209898551,-94.2649589691813,-6.948243422245511,0.0007503093058132476
1,0,0,843,1,2,19.19495,34,12750.0,14.805050000000001,0,11,6,0,0,81.0,0.9003488741195169,649.3468209898551,-94.2649589691813,19.71309288291988,0.007670238791326933
1,0,4,710,2,0,31.58063,41,3886.899999976158,9.41937,0,12,6,0,0,81.0,0.9003488741195169,649.3468209898551,-94.2649589691813,10.527612032331461,0.0012593289985380245
1,0,0,425,4,2,68.59844,70,2248.100000023842,1.4015600000000035,0,13,6,0,0,81.0,0.9003488741195169,649.3468209898551,-94.2649589691813,-8.846883803368428,0.001116584211505749
1,0,2,302,5,1,93.24415,100,2378.200000047684,6.755849999999995,0,14,6,0,0,81.0,0.9003488741195169,649.3468209898551,-94.2649589691813,-11.053652500508733,0.003347495025197958
1,0,0,710,2,1,31.58063,26,2782.3000000715256,-5.580629999999999,0,15,6,0,0,81.0,0.9003488741195169,649.3468209898551,-94.2649589691813,-4.4723879676685385,0.0005957728653958999
1,0,4,463,4,1,62.42097,74,2653.399999976158,11.579030000000003,0,16,6,0,0,81.0,0.9003488741195169,649.3468209898551,-94.2649589691813,3.225767927617696,0.00014686002879670773
1,0,0,302,5,0,93.24415,100,4091.700000047684,6.755849999999995,0,17,6,0,0,81.0,0.9003488741195169,649.3468209898551,-94.2649589691813,-11.053652500508733,0.003347495025197958
1,0,5,463,4,0,62.42097,78,4042.0,15.579030000000003,0,18,6,0,0,81.0,0.9003488741195169,649.3468209898551,-94.2649589691813,7.225767927617696,0.0007055984361851903
1,0,1,504,3,1,56.30039,100,3367.1999999284744,43.69961,0,19,6,0,0,81.0,0.9003488741195169,649.3468209898551,-94.2649589691813,37.2240756024937,0.015475845321602491
1,0,5,302,5,2,93.24415,100,2611.600000023842,6.755849999999995,0,20,6,0,0,81.0,0.9003488741195169,649.3468209898551,-94.2649589691813,-11.053652500508733,0.003347495025197958
1,0,1,425,4,0,68.59844,81,2438.5,12.401560000000003,0,21,6,0,0,81.0,0.9003488741195169,649.3468209898551,-94.2649589691813,2.153116196631572,0.00011111464921803493
1,0,5,599,3,2,43.84378,50,4646.0,6.156219999999998,0,22,6,0,0,81.0,0.9003488741195169,649.3468209898551,-94.2649589691813,3.502251153678479,7.440583106131292e-05
1,0,2,463,4,0,62.42097,58,4367.0,-4.420969999999997,0,23,6,0,0,81.0,0.9003488741195169,649.3468209898551,-94.2649589691813,-12.774232072382304,0.002084790106703528
1,0,3,599,3,1,43.84378,50,4134.5,6.156219999999998,0,24,6,0,0,81.0,0.9003488741195169,649.3468209898551,-94.2649589691813,3.502251153678479,7.440583106131292e-05
1,0,4,358,5,2,80.9736,100,4923.899999976158,19.026399999999995,0,25,6,0,0,81.0,0.9003488741195169,649.3468209898551,-94.2649589691813,4.981379690124015,0.0009719557662623107
1,0,3,918,1,1,13.04687,33,3043.5,19.95313,0,26,6,0,0,81.0,0.9003488741195169,649.3468209898551,-94.2649589691813,26.747336116641108,0.018521045878696893
1,0,1,329,5,2,87.0672,100,2953.5,12.9328,0,27,6,0,0,81.0,0.9003488741195169,649.3468209898551,-94.2649589691813,-2.9816749309521384,6.607228106709046e-05
1,0,5,652,2,1,37.72798,54,6807.0,16.272019999999998,0,28,6,0,0,81.0,0.9003488741195169,649.3468209898551,-94.2649589691813,15.494313758627193,0.0026310585772867504
1,0,3,302,5,0,93.24415,100,2294.599999904633,6.755849999999995,0,29,6,0,0,81.0,0.9003488741195169,649.3468209898551,-94.2649589691813,-11.053652500508733,0.003347495025197958
1,0,4,599,3,2,43.84378,48,6816.799999952316,4.156219999999998,0,30,6,0,0,81.0,0.9003488741195169,649.3468209898551,-94.2649589691813,1.502251153678479,3.619033478431146e-06
1,0,4,1000,1,0,6.87518,1,3176.399999976158,-5.87518,1,31,6,0,0,81.0,0.9003488741195169,649.3468209898551,-94.2649589691813,2.8124469525414737,2.4236329470230843e-06
1,0,3,425,4,2,68.59844,100,2855.5,31.401560000000003,1,32,6,0,0,81.0,0.9003488741195169,649.3468209898551,-94.2649589691813,21.153116196631572,0.007476338525057623
1,0,4,774,2,1,25.3549,42,3893.5,16.6451,1,33,6,0,0,81.0,0.9003488741195169,649.3468209898551,-94.2649589691813,19.663328754640858,0.00627327461542243
1,0,0,329,5,1,87.0672,100,2320.600000023842,12.9328,1,34,6,0,0,81.0,0.9003488741195169,649.3468209898551,-94.2649589691813,-2.9816749309521384,6.607228106709046e-05
1,0,3,843,1,2,19.19495,0,3829.0,-19.19495,1,35,6,0,0,81.0,0.9003488741195169,649.3468209898551,-94.2649589691813,-14.286907117080117,0.007044418032772578
1,0,4,329,5,1,87.0672,100,2868.600000023842,12.9328,1,36,6,0,0,81.0,0.9003488741195169,649.3468209898551,-94.2649589691813,-2.9816749309521384,6.607228106709046e-05
1,0,1,710,2,0,31.58063,28,2198.899999976158,-3.5806299999999993,1,37,6,0,0,81.0,0.9003488741195169,649.3468209898551,-94.2649589691813,-2.4723879676685385,0.00026969503348883874
1,0,5,329,5,1,87.0672,100,2547.899999976158,12.9328,1,38,6,0,0,81.0,0.9003488741195169,649.3468209898551,-94.2649589691813,-2.9816749309521384,6.607228106709046e-05
1,0,3,774,2,0,25.3549,14,4001.899999976158,-11.3549,1,39,6,0,0,81.0,0.9003488741195169,649.3468209898551,-94.2649589691813,-8.336671245359142,0.002146918832253452
1,0,1,358,5,1,80.9736,100,2520.899999976158,19.026399999999995,1,40,6,0,0,81.0,0.9003488741195169,649.3468209898551,-94.2649589691813,4.981379690124015,0.0009719557662623107
1,0,5,843,1,0,19.19495,0,2421.0,-19.19495,1,41,6,0,0,81.0,0.9003488741195169,649.3468209898551,-94.2649589691813,-14.286907117080117,0.007044418032772578
1,0,0,504,3,2,56.30039,50,5097.5,-6.30039,1,42,6,0,0,81.0,0.9003488741195169,649.3468209898551,-94.2649589691813,-12.775924397506301,0.0019093346394508117
1,0,2,774,2,1,25.3549,50,3989.3000000715256,24.6451,1,43,6,0,0,81.0,0.9003488741195169,649.3468209898551,-94.2649589691813,27.663328754640858,0.01324162330332619
1,0,4,504,3,0,56.30039,73,1889.8000000715256,16.69961,1,44,6,0,0,81.0,0.9003488741195169,649.3468209898551,-94.2649589691813,10.224075602493699,0.001130915895020118
1,0,0,463,4,0,62.42097,52,3198.0,-10.420969999999997,1,45,6,0,0,81.0,0.9003488741195169,649.3468209898551,-94.2649589691813,-18.774232072382304,0.004532828415246147
1,0,1,843,1,1,19.19495,0,2826.600000023842,-19.19495,1,46,6,0,0,81.0,0.9003488741195169,649.3468209898551,-94.2649589691813,-14.286907117080117,0.007044418032772578
1,0,5,710,2,2,31.58063,25,4598.200000047684,-6.580629999999999,1,47,6,0,0,81.0,0.9003488741195169,649.3468209898551,-94.2649589691813,-5.4723879676685385,0.0008066447024639705
1,0,0,918,1,0,13.04687,0,2706.0,-13.04687,1,48,6,0,0,81.0,0.9003488741195169,649.3468209898551,-94.2649589691813,-6.252663883358893,0.0025705043127451557
1,0,1,599,3,0,43.84378,49,4359.400000095367,5.156219999999998,1,49,6,0,0,81.0,0.9003488741195169,649.3468209898551,-94.2649589691813,2.502251153678479,2.771104997849104e-05
1,0,2,425,4,1,68.59844,100,2335.0,31.401560000000003,1,50,6,0,0,81.0,0.9003488741195169,649.3468209898551,-94.2649589691813,21.153116196631572,0.007476338525057623
1,0,3,550,3,0,50.0,50,3850.1999999284735,0.0,1,51,6,0,0,81.0,0.9003488741195169,649.3468209898551,-94.2649589691813,-4.542633393945508,0.0002813946109849342
1,0,2,918,1,1,13.04687,23,1851.0,9.95313,1,52,6,0,0,81.0,0.9003488741195169,649.3468209898551,-94.2649589691813,16.747336116641108,0.006318398614581733
1,0,0,652,2,0,37.72798,46,1762.100000023842,8.272019999999998,1,53,6,0,0,81.0,0.9003488741195169,649.3468209898551,-94.2649589691813,7.494313758627193,0.0005022008867148912
1,0,2,329,5,2,87.0672,100,3474.100000023842,12.9328,1,54,6,0,0,81.0,0.9003488741195169,649.3468209898551,-94.2649589691813,-2.9816749309521384,6.607228106709046e-05
1,0,1,463,4,1,62.42097,100,4401.900000095367,37.57903,1,55,6,0,0,81.0,0.9003488741195169,649.3468209898551,-94.2649589691813,29.225767927617696,0.011237689303907936
1,0,3,358,5,1,80.9736,100,2340.0,19.026399999999995,1,56,6,0,0,81.0,0.9003488741195169,649.3468209898551,-94.2649589691813,4.981379690124015,0.0009719557662623107
1,0,5,550,3,0,50.0,52,4086.100000023842,2.0,1,57,6,0,0,81.0,0.9003488741195169,649.3468209898551,-94.2649589691813,-2.5426333939455077,0.0001046382678343653
1,0,4,390,4,2,74.79787,100,5485.299999952316,25.202129999999997,1,58,6,0,0,81.0,0.9003488741195169,649.3468209898551,-94.2649589691813,13.051756577754489,0.003882034785890237
1,0,2,599,3,2,43.84378,49,5868.399999976158,5.156219999999998,1,59,6,0,0,81.0,0.9003488741195169,649.3468209898551,-94.2649589691813,2.502251153678479,2.771104997849104e-05
1,0,5,425,4,2,68.59844,100,1954.700000047684,31.401560000000003,1,60,6,0,0,81.0,0.9003488741195169,649.3468209898551,-94.2649589691813,21.153116196631572,0.007476338525057623
1,0,0,390,4,1,74.79787,100,2109.399999976158,25.202129999999997,2,61,6,0,0,81.0,0.9003488741195169,649.3468209898551,-94.2649589691813,13.051756577754489,0.003882034785890237
1,0,4,302,5,0,93.24415,100,1891.6000000238416,6.755849999999995,2,62,6,0,0,81.0,0.9003488741195169,649.3468209898551,-94.2649589691813,-11.053652500508733,0.003347495025197958
1,0,5,918,1,2,13.04687,0,2154.200000047684,-13.04687,2,63,6,0,0,81.0,0.9003488741195169,649.3468209898551,-94.2649589691813,-6.252663883358893,0.0025705043127451557
1,0,4,425,4,0,68.59844,100,2125.5,31.401560000000003,2,64,6,0,0,81.0,0.9003488741195169,649.3468209898551,-94.2649589691813,21.153116196631572,0.007476338525057623
1,0,3,329,5,2,87.0672,100,1775.5999999046326,12.9328,2,65,6,0,0,81.0,0.9003488741195169,649.3468209898551,-94.2649589691813,-2.9816749309521384,6.607228106709046e-05
1,0,4,843,1,2,19.19495,15,4969.100000023842,-4.194949999999999,2,66,6,0,0,81.0,0.9003488741195169,649.3468209898551,-94.2649589691813,0.7130928829198826,6.830103882913958e-05
1,0,1,390,4,2,74.79787,90,2880.399999976158,15.202129999999997,2,67,6,0,0,81.0,0.9003488741195169,649.3468209898551,-94.2649589691813,3.051756577754489,0.0003047503877060323
1,0,5,358,5,0,80.9736,100,2917.600000023842,19.026399999999995,2,68,6,0,0,81.0,0.9003488741195169,649.3468209898551,-94.2649589691813,4.981379690124015,0.0009719557662623107
1,0,3,504,3,2,56.30039,48,5643.0,-8.30039,2,69,6,0,0,81.0,0.9003488741195169,649.3468209898551,-94.2649589691813,-14.775924397506301,0.002542161201625177
1,0,5,390,4,1,74.79787,90,4473.300000071526,15.202129999999997,2,70,6,0,0,81.0,0.9003488741195169,649.3468209898551,-94.2649589691813,3.051756577754489,0.0003047503877060323
1,0,1,918,1,2,13.04687,12,7060.700000047684,-1.0468700000000002,2,71,6,0,0,81.0,0.9003488741195169,649.3468209898551,-94.2649589691813,5.747336116641107,0.00029667622576801507
1,0,5,774,2,0,25.3549,7,4645.799999952316,-18.3549,2,72,6,0,0,81.0,0.9003488741195169,649.3468209898551,-94.2649589691813,-15.336671245359142,0.006040331704914657
1,0,4,550,3,1,50.0,51,2364.2999999523163,1.0,2,73,6,0,0,81.0,0.9003488741195169,649.3468209898551,-94.2649589691813,-3.5426333939455077,0.00018230542926228748
1,0,0,774,2,2,25.3549,0,3968.600000023842,-25.3549,2,74,6,0,0,81.0,0.9003488741195169,649.3468209898551,-94.2649589691813,-22.336671245359142,0.011903745304957239
1,0,5,504,3,1,56.30039,50,4378.200000047684,-6.30039,2,75,6,0,0,81.0,0.9003488741195169,649.3468209898551,-94.2649589691813,-12.775924397506301,0.0019093346394508117
1,0,4,652,2,2,37.72798,0,3010.2999999523163,-37.72798,2,76,6,0,0,81.0,0.9003488741195169,649.3468209898551,-94.2649589691813,-38.50568624137281,0.02064198767087313
1,0,0,550,3,0,50.0,47,3811.0,-3.0,2,77,6,0,0,81.0,0.9003488741195169,649.3468209898551,-94.2649589691813,-7.542633393945508,0.0007071942779212228
1,0,2,358,5,0,80.9736,100,1575.8000000715256,19.026399999999995,2,78,6,0,0,81.0,0.9003488741195169,649.3468209898551,-94.2649589691813,4.981379690124015,0.0009719557662623107
1,0,1,550,3,2,50.0,48,2463.0,-2.0,2,79,6,0,0,81.0,0.9003488741195169,649.3468209898551,-94.2649589691813,-6.542633393945508,0.0005438390353144017
1,0,2,710,2,2,31.58063,1,2336.5,-30.58063,2,80,6,0,0,81.0,0.9003488741195169,649.3468209898551,-94.2649589691813,-29.47238796766854,0.01543415301500561
1,0,0,358,5,2,80.9736,100,1444.5,19.026399999999995,2,81,6,0,0,81.0,0.9003488741195169,649.3468209898551,-94.2649589691813,4.981379690124015,0.0009719557662623107
1,0,2,550,3,1,50.0,47,2941.899999976158,-3.0,2,82,6,0,0,81.0,0.9003488741195169,649.3468209898551,-94.2649589691813,-7.542633393945508,0.0007071942779212228
1,0,3,710,2,2,31.58063,6,1447.600000023842,-25.58063,2,83,6,0,0,81.0,0.9003488741195169,649.3468209898551,-94.2649589691813,-24.47238796766854,0.010872046281265677
1,0,2,843,1,2,19.19495,47,3420.899999976158,27.80505,2,84,6,0,0,81.0,0.9003488741195169,649.3468209898551,-94.2649589691813,32.71309288291988,0.023457252990994173
1,0,1,774,2,2,25.3549,22,5620.299999952316,-3.3549000000000007,2,85,6,0,0,81.0,0.9003488741195169,649.3468209898551,-94.2649589691813,-0.33667124535914184,0.00010954990927090747
1,0,0,1000,1,1,6.87518,21,2281.7999999523163,14.12482,2,86,6,0,0,81.0,0.9003488741195169,649.3468209898551,-94.2649589691813,22.812446952541475,0.015597829175253757
1,0,2,390,4,2,74.79787,100,1718.100000023842,25.202129999999997,2,87,6,0,0,81.0,0.9003488741195169,649.3468209898551,-94.2649589691813,13.051756577754489,0.003882034785890237
1,0,3,1000,1,0,6.87518,0,2622.0,-6.87518,2,88,6,0,0,81.0,0.9003488741195169,649.3468209898551,-94.2649589691813,1.8124469525414737,6.208188297335675e-05
1,0,1,302,5,0,93.24415,99,3104.200000047684,5.755849999999995,2,89,6,0,0,81.0,0.9003488741195169,649.3468209898551,-94.2649589691813,-12.053652500508733,0.004118816105367232
1,0,3,463,4,0,62.42097,57,8136.0,-5.420969999999997,2,90,6,0,0,81.0,0.9003488741195169,649.3468209898551,-94.2649589691813,-13.774232072382304,0.002427595183531557
1,0,4,652,2,1,37.72798,46,1973.0,8.272019999999998,3,91,6,0,0,81.0,0.9003488741195169,649.3468209898551,-94.2649589691813,7.494313758627193,0.0005022008867148912
1,0,2,1000,1,1,6.87518,0,2719.2999999523163,-6.87518,3,92,6,0,0,81.0,0.9003488741195169,649.3468209898551,-94.2649589691813,1.8124469525414737,6.208188297335675e-05
1,0,5,652,2,0,37.72798,45,3469.5,7.272019999999998,3,93,6,0,0,81.0,0.9003488741195169,649.3468209898551,-94.2649589691813,6.494313758627193,0.0003534151192519102
1,0,2,599,3,0,43.84378,46,2224.700000047684,2.1562199999999976,3,94,6,0,0,81.0,0.9003488741195169,649.3468209898551,-94.2649589691813,-0.49774884632152094,2.324329422659733e-05
1,0,1,843,1,1,19.19495,0,3843.1999999284735,-19.19495,3,95,6,0,0,81.0,0.9003488741195169,649.3468209898551,-94.2649589691813,-14.286907117080117,0.007044418032772578
1,0,4,302,5,2,93.24415,100,1922.399999976158,6.755849999999995,3,96,6,0,0,81.0,0.9003488741195169,649.3468209898551,-94.2649589691813,-11.053652500508733,0.003347495025197958
1,0,3,390,4,0,74.79787,100,1724.7999999523165,25.202129999999997,3,97,6,0,0,81.0,0.9003488741195169,649.3468209898551,-94.2649589691813,13.051756577754489,0.003882034785890237
1,0,4,550,3,2,50.0,47,16972.699999928474,-3.0,3,98,6,0,0,81.0,0.9003488741195169,649.3468209898551,-94.2649589691813,-7.542633393945508,0.0007071942779212228
1,0,2,390,4,1,74.79787,47,9374.700000047684,-27.797870000000003,3,99,6,0,0,81.0,0.9003488741195169,649.3468209898551,-94.2649589691813,-39.94824342224551,0.03076272706465468
1,0,1,652,2,0,37.72798,7,4678.200000047684,-30.727980000000002,3,100,6,0,0,81.0,0.9003488741195169,649.3468209898551,-94.2649589691813,-31.505686241372807,0.01401848704435856
1,0,5,390,4,0,74.79787,100,3724.299999952316,25.202129999999997,3,101,6,0,0,81.0,0.9003488741195169,649.3468209898551,-94.2649589691813,13.051756577754489,0.003882034785890237
1,0,2,302,5,0,93.24415,100,5367.600000023842,6.755849999999995,3,102,6,0,0,81.0,0.9003488741195169,649.3468209898551,-94.2649589691813,-11.053652500508733,0.003347495025197958
1,0,1,463,4,1,62.42097,53,3596.399999976158,-9.420969999999997,3,103,6,0,0,81.0,0.9003488741195169,649.3468209898551,-94.2649589691813,-17.774232072382304,0.004059620722559969
1,0,0,302,5,0,93.24415,100,2829.200000047684,6.755849999999995,3,104,6,0,0,81.0,0.9003488741195169,649.3468209898551,-94.2649589691813,-11.053652500508733,0.003347495025197958
1,0,4,425,4,2,68.59844,65,2763.2999999523163,-3.5984399999999965,3,105,6,0,0,81.0,0.9003488741195169,649.3468209898551,-94.2649589691813,-13.846883803368428,0.002851081659342456
1,0,1,599,3,1,43.84378,0,3450.6999999284744,-43.84378,3,106,6,0,0,81.0,0.9003488741195169,649.3468209898551,-94.2649589691813,-46.49774884632152,0.025428053390803656
1,0,0,652,2,2,37.72798,37,2423.3000000715256,-0.7279800000000023,3,107,6,0,0,81.0,0.9003488741195169,649.3468209898551,-94.2649589691813,-1.505686241372807,0.00010170053041607556
1,0,3,843,1,2,19.19495,2,2535.3000000715256,-17.19495,3,108,6,0,0,81.0,0.9003488741195169,649.3468209898551,-94.2649589691813,-12.286907117080117,0.005452663577183607
1,0,0,550,3,1,50.0,48,3601.600000023842,-2.0,3,109,6,0,0,81.0,0.9003488741195169,649.3468209898551,-94.2649589691813,-6.542633393945508,0.0005438390353144017
1,0,4,1000,1,2,6.87518,0,1726.600000023842,-6.87518,3,110,6,0,0,81.0,0.9003488741195169,649.3468209898551,-94.2649589691813,1.8124469525414737,6.208188297335675e-05
1,0,0,390,4,2,74.79787,100,2691.100000023842,25.202129999999997,3,111,6,0,0,81.0,0.9003488741195169,649.3468209898551,-94.2649589691813,13.051756577754489,0.003882034785890237
1,0,5,550,3,0,50.0,100,3569.5,50.0,3,112,6,0,0,81.0,0.9003488741195169,649.3468209898551,-94.2649589691813,45.45736660605449,0.021568910385890275
1,0,1,302,5,0,93.24415,100,2515.0,6.755849999999995,3,113,6,0,0,81.0,0.9003488741195169,649.3468209898551,-94.2649589691813,-11.053652500508733,0.003347495025197958
1,0,2,774,2,0,25.3549,48,2842.1999999284744,22.6451,3,114,6,0,0,81.0,0.9003488741195169,649.3468209898551,-94.2649589691813,25.663328754640858,0.011258311552487223
1,0,5,329,5,0,87.0672,100,1760.5,12.9328,3,115,6,0,0,81.0,0.9003488741195169,649.3468209898551,-94.2649589691813,-2.9816749309521384,6.607228106709046e-05
1,0,3,504,3,2,56.30039,53,3189.700000047684,-3.30039,3,116,6,0,0,81.0,0.9003488741195169,649.3468209898551,-94.2649589691813,-9.775924397506301,0.0011296361888999027
1,0,0,918,1,1,13.04687,48,5886.0,34.95313,3,117,6,0,0,81.0,0.9003488741195169,649.3468209898551,-94.2649589691813,41.74733611664111,0.04883993495946859
1,0,3,358,5,0,80.9736,100,2756.3000000715256,19.026399999999995,3,118,6,0,0,81.0,0.9003488741195169,649.3468209898551,-94.2649589691813,4.981379690124015,0.0009719557662623107
1,0,5,843,1,1,19.19495,0,3467.899999976158,-19.19495,3,119,6,0,0,81.0,0.9003488741195169,649.3468209898551,-94.2649589691813,-14.286907117080117,0.007044418032772578
1,0,3,652,2,2,37.72798,48,2150.7999999523163,10.272019999999998,3,120,6,0,0,81.0,0.9003488741195169,649.3468209898551,-94.2649589691813,9.494313758627193,0.0008779867175465206
1,0,1,710,2,1,31.58063,0,2237.2999999523163,-31.58063,4,121,6,0,0,81.0,0.9003488741195169,649.3468209898551,-94.2649589691813,-30.47238796766854,0.01644224020398268
1,0,2,918,1,2,13.04687,47,3036.399999976158,33.95313,4,122,6,0,0,81.0,0.9003488741195169,649.3468209898551,-94.2649589691813,40.74733611664111,0.04637011874185878
1,0,0,463,4,1,62.42097,100,1433.2000000476835,37.57903,4,123,6,0,0,81.0,0.9003488741195169,649.3468209898551,-94.2649589691813,29.225767927617696,0.011237689303907936
1,0,3,302,5,1,93.24415,100,1573.2000000476835,6.755849999999995,4,124,6,0,0,81.0,0.9003488741195169,649.3468209898551,-94.2649589691813,-11.053652500508733,0.003347495025197958
1,0,2,463,4,0,62.42097,92,2492.0,29.579030000000003,4,125,6,0,0,81.0,0.9003488741195169,649.3468209898551,-94.2649589691813,21.225767927617696,0.005947328781670219
1,0,4,329,5,0,87.0672,99,2388.5,11.9328,4,126,6,0,0,81.0,0.9003488741195169,649.3468209898551,-94.2649589691813,-3.9816749309521384,0.00019006701406330793
1,0,5,918,1,2,13.04687,0,2567.600000023842,-13.04687,4,127,6,0,0,81.0,0.9003488741195169,649.3468209898551,-94.2649589691813,-6.252663883358893,0.0025705043127451557
1,0,4,710,2,2,31.58063,3,2615.399999976158,-28.58063,4,128,6,0,0,81.0,0.9003488741195169,649.3468209898551,-94.2649589691813,-27.47238796766854,0.013513644479280556
1,0,0,843,1,2,19.19495,48,3905.200000047684,28.80505,4,129,6,0,0,81.0,0.9003488741195169,649.3468209898551,-94.2649589691813,33.71309288291988,0.025027887826464132
1,0,4,599,3,1,43.84378,47,4912.600000023842,3.1562199999999976,4,130,6,0,0,81.0,0.9003488741195169,649.3468209898551,-94.2649589691813,0.5022511536784791,2.1297815611332428e-06
1,0,3,918,1,0,13.04687,48,3801.3000000715256,34.95313,4,131,6,0,0,81.0,0.9003488741195169,649.3468209898551,-94.2649589691813,41.74733611664111,0.04883993495946859
1,0,5,599,3,1,43.84378,48,3809.400000095368,4.156219999999998,4,132,6,0,0,81.0,0.9003488741195169,649.3468209898551,-94.2649589691813,1.502251153678479,3.619033478431146e-06
1,0,4,918,1,0,13.04687,0,2898.899999976158,-13.04687,4,133,6,0,0,81.0,0.9003488741195169,649.3468209898551,-94.2649589691813,-6.252663883358893,0.0025705043127451557
1,0,1,504,3,0,56.30039,54,4232.400000095367,-2.30039,4,134,6,0,0,81.0,0.9003488741195169,649.3468209898551,-94.2649589691813,-8.775924397506301,0.0009149477434391037
1,0,0,358,5,1,80.9736,99,8449.699999928474,18.026399999999995,4,135,6,0,0,81.0,0.9003488741195169,649.3468209898551,-94.2649589691813,3.9813796901240153,0.000682710417629832
1,0,1,1000,1,0,6.87518,0,2334.599999904633,-6.87518,4,136,6,0,0,81.0,0.9003488741195169,649.3468209898551,-94.2649589691813,1.8124469525414737,6.208188297335675e-05
1,0,5,358,5,1,80.9736,100,2082.399999976158,19.026399999999995,4,137,6,0,0,81.0,0.9003488741195169,649.3468209898551,-94.2649589691813,4.981379690124015,0.0009719557662623107
1,0,2,710,2,2,31.58063,39,7084.200000047684,7.419370000000001,4,138,6,0,0,81.0,0.9003488741195169,649.3468209898551,-94.2649589691813,8.527612032331461,0.0007563028644597299
1,0,1,329,5,2,87.0672,100,1859.1999999284744,12.9328,4,139,6,0,0,81.0,0.9003488741195169,649.3468209898551,-94.2649589691813,-2.9816749309521384,6.607228106709046e-05
1,0,3,710,2,1,31.58063,0,3671.099999904633,-31.58063,4,140,6,0,0,81.0,0.9003488741195169,649.3468209898551,-94.2649589691813,-30.47238796766854,0.01644224020398268
1,0,1,425,4,2,68.59844,100,1809.200000047684,31.401560000000003,4,141,6,0,0,81.0,0.9003488741195169,649.3468209898551,-94.2649589691813,21.153116196631572,0.007476338525057623
1,0,0,599,3,0,43.84378,48,2580.599999904633,4.156219999999998,4,142,6,0,0,81.0,0.9003488741195169,649.3468209898551,-94.2649589691813,1.502251153678479,3.619033478431146e-06
1,0,2,329,5,2,87.0672,100,1759.899999976158,12.9328,4,143,6,0,0,81.0,0.9003488741195169,649.3468209898551,-94.2649589691813,-2.9816749309521384,6.607228106709046e-05
1,0,0,710,2,1,31.58063,48,2359.200000047684,16.41937,4,144,6,0,0,81.0,0.9003488741195169,649.3468209898551,-94.2649589691813,17.52761203233146,0.00402441181121739
1,0,3,463,4,1,62.42097,53,8297.599999904633,-9.420969999999997,4,145,6,0,0,81.0,0.9003488741195169,649.3468209898551,-94.2649589691813,-17.774232072382304,0.004059620722559969
1,0,5,774,2,2,25.3549,53,3465.399999976158,27.6451,4,146,6,0,0,81.0,0.9003488741195169,649.3468209898551,-94.2649589691813,30.663328754640858,0.016518121653163423
1,0,3,599,3,0,43.84378,46,2750.2999999523163,2.1562199999999976,4,147,6,0,0,81.0,0.9003488741195169,649.3468209898551,-94.2649589691813,-0.49774884632152094,2.324329422659733e-05
1,0,5,463,4,1,62.42097,94,6232.199999928474,31.579030000000003,4,148,6,0,0,81.0,0.9003488741195169,649.3468209898551,-94.2649589691813,23.225767927617696,0.007113435773199872
1,0,2,550,3,1,50.0,46,5175.5,-4.0,4,149,6,0,0,81.0,0.9003488741195169,649.3468209898551,-94.2649589691813,-8.542633393945508,0.0008919715408227678
1,0,4,463,4,1,62.42097,58,3634.600000023842,-4.420969999999997,4,150,6,0,0,81.0,0.9003488741195169,649.3468209898551,-94.2649589691813,-12.774232072382304,0.002084790106703528
1,0,2,358,5,1,80.9736,100,1736.600000023842,19.026399999999995,5,151,6,0,0,81.0,0.9003488741195169,649.3468209898551,-94.2649589691813,4.981379690124015,0.0009719557662623107
1,0,0,425,4,0,68.59844,100,2353.2999999523163,31.401560000000003,5,152,6,0,0,81.0,0.9003488741195169,649.3468209898551,-94.2649589691813,21.153116196631572,0.007476338525057623
1,0,5,710,2,1,31.58063,48,1909.399999976158,16.41937,5,153,6,0,0,81.0,0.9003488741195169,649.3468209898551,-94.2649589691813,17.52761203233146,0.00402441181121739
1,0,3,550,3,1,50.0,47,2298.8000000715256,-3.0,5,154,6,0,0,81.0,0.9003488741195169,649.3468209898551,-94.2649589691813,-7.542633393945508,0.0007071942779212228
1,0,1,774,2,2,25.3549,0,2596.3000000715256,-25.3549,5,155,6,0,0,81.0,0.9003488741195169,649.3468209898551,-94.2649589691813,-22.336671245359142,0.011903745304957239
1,0,0,504,3,2,56.30039,47,4117.300000071526,-9.30039,5,156,6,0,0,81.0,0.9003488741195169,649.3468209898551,-94.2649589691813,-15.775924397506301,0.002892482761254487
1,0,1,918,1,2,13.04687,0,2301.200000047684,-13.04687,5,157,6,0,0,81.0,0.9003488741195169,649.3468209898551,-94.2649589691813,-6.252663883358893,0.0025705043127451557
1,0,0,774,2,0,25.3549,6,2088.1999999284744,-19.3549,5,158,6,0,0,81.0,0.9003488741195169,649.3468209898551,-94.2649589691813,-16.336671245359142,0.006757349929774942
1,0,2,425,4,2,68.59844,100,1609.4000000953674,31.401560000000003,5,159,6,0,0,81.0,0.9003488741195169,649.3468209898551,-94.2649589691813,21.153116196631572,0.007476338525057623
1,0,4,774,2,0,25.3549,43,2026.8000000715256,17.6451,5,160,6,0,0,81.0,0.9003488741195169,649.3468209898551,-94.2649589691813,20.663328754640858,0.0070036038637403
1,0,2,504,3,2,56.30039,86,1293.6999999284744,29.69961,5,161,6,0,0,81.0,0.9003488741195169,649.3468209898551,-94.2649589691813,23.2240756024937,0.005980631535522543
1,0,3,774,2,0,25.3549,0,2830.100000023842,-25.3549,5,162,6,0,0,81.0,0.9003488741195169,649.3468209898551,-94.2649589691813,-22.336671245359142,0.011903745304957239
1,0,5,302,5,2,93.24415,100,3109.599999904633,6.755849999999995,5,163,6,0,0,81.0,0.9003488741195169,649.3468209898551,-94.2649589691813,-11.053652500508733,0.003347495025197958
1,0,4,390,4,0,74.79787,98,1823.5,23.202129999999997,5,164,6,0,0,81.0,0.9003488741195169,649.3468209898551,-94.2649589691813,11.051756577754489,0.0028447504409500816
1,0,0,329,5,2,87.0672,78,5971.399999976158,-9.0672,5,165,6,0,0,81.0,0.9003488741195169,649.3468209898551,-94.2649589691813,-24.98167493095214,0.01758391238841245
1,0,4,843,1,1,19.19495,38,7368.100000023842,18.80505,5,166,6,0,0,81.0,0.9003488741195169,649.3468209898551,-94.2649589691813,23.71309288291988,0.01161171243621399
1,0,3,329,5,2,87.0672,100,1845.399999976158,12.9328,5,167,6,0,0,81.0,0.9003488741195169,649.3468209898551,-94.2649589691813,-2.9816749309521384,6.607228106709046e-05
1,0,5,504,3,2,56.30039,48,3299.6999999284744,-8.30039,5,168,6,0,0,81.0,0.9003488741195169,649.3468209898551,-94.2649589691813,-14.775924397506301,0.002542161201625177
1,0,2,652,2,1,37.72798,38,2971.700000047684,0.2720199999999977,5,169,6,0,0,81.0,0.9003488741195169,649.3468209898551,-94.2649589691813,-0.5056862413728069,4.191484213060925e-05
1,0,1,550,3,2,50.0,43,1698.100000023842,-7.0,5,170,6,0,0,81.0,0.9003488741195169,649.3468209898551,-94.2649589691813,-11.542633393945508,0.0015748354512957518
1,0,2,843,1,0,19.19495,0,1852.200000047684,-19.19495,5,171,6,0,0,81.0,0.9003488741195169,649.3468209898551,-94.2649589691813,-14.286907117080117,0.007044418032772578
1,0,1,358,5,1,80.9736,97,1921.700000047684,16.026399999999995,5,172,6,0,0,81.0,0.9003488741195169,649.3468209898551,-94.2649589691813,1.9813796901240153,0.00025708188333026607
1,0,5,425,4,2,68.59844,100,1346.899999976158,31.401560000000003,5,173,6,0,0,81.0,0.9003488741195169,649.3468209898551,-94.2649589691813,21.153116196631572,0.007476338525057623
1,0,4,504,3,0,56.30039,52,1765.399999976158,-4.30039,5,174,6,0,0,81.0,0.9003488741195169,649.3468209898551,-94.2649589691813,-10.775924397506301,0.0013669301533887873
1,0,5,1000,1,0,6.87518,0,2877.399999976158,-6.87518,5,175,6,0,0,81.0,0.9003488741195169,649.3468209898551,-94.2649589691813,1.8124469525414737,6.208188297335675e-05
1,0,4,358,5,1,80.9736,99,3209.100000023842,18.026399999999995,5,176,6,0,0,81.0,0.9003488741195169,649.3468209898551,-94.2649589691813,3.9813796901240153,0.000682710417629832
1,0,3,425,4,2,68.59844,99,6668.599999904633,30.401560000000003,5,177,6,0,0,81.0,0.9003488741195169,649.3468209898551,-94.2649589691813,20.153116196631572,0.00680126535173295
1,0,0,1000,1,0,6.87518,0,1739.5999999046326,-6.87518,5,178,6,0,0,81.0,0.9003488741195169,649.3468209898551,-94.2649589691813,1.8124469525414737,6.208188297335675e-05
1,0,1,390,4,0,74.79787,98,2068.899999976158,23.202129999999997,5,179,6,0,0,81.0,0.9003488741195169,649.3468209898551,-94.2649589691813,11.051756577754489,0.0028447504409500816
1,0,3,1000,1,1,6.87518,1,3789.0,-5.87518,5,180,6,0,0,81.0,0.9003488741195169,649.3468209898551,-94.2649589691813,2.8124469525414737,2.4236329470230843e-06
2,0,5,774,2,0,25.3549,33,2478.800000000745,7.645099999999999,0,1,2,3,1,0.0,0.45014209349190776,128.14252560945832,-11.920372799807522,-15.853309171554578,0.015529368534072118
2,0,2,843,1,1,19.19495,38,2874.5,18.80505,0,2,2,3,1,0.0,0.45014209349190776,128.14252560945832,-11.920372799807522,-9.835367930090975,0.007416979108635011
2,0,1,710,2,0,31.58063,43,3974.5,11.41937,0,3,2,3,1,0.0,0.45014209349190776,128.14252560945832,-11.920372799807522,-6.882119637119651,0.002294608971308878
2,0,4,425,4,2,68.59844,67,2120.5999999996275,-1.5984399999999965,0,4,2,3,1,0.0,0.45014209349190776,128.14252560945832,-11.920372799807522,11.000633501798013,0.005885613569826616
2,0,5,599,3,1,43.84378,54,5681.599999999628,10.156219999999998,0,5,2,3,1,0.0,0.45014209349190776,128.14252560945832,-11.920372799807522,2.091376792370667,0.0001574866810388373
2,0,1,390,4,1,74.79787,56,4784.0,-18.797870000000003,0,6,2,3,1,0.0,0.45014209349190776,128.14252560945832,-11.920372799807522,-1.0238323007479124,9.307926442745894e-05
2,0,3,504,3,2,56.30039,64,1994.4000000003723,7.69961,0,7,2,3,1,0.0,0.45014209349190776,128.14252560945832,-11.920372799807522,10.032903281187423,0.0035147542970794996
2,0,1,302,5,0,93.24415,81,2673.0,-12.244150000000005,0,8,2,3,1,0.0,0.45014209349190776,128.14252560945832,-11.920372799807522,20.927893283743074,0.05312310338642467
2,0,5,918,1,0,13.04687,23,1734.5999999996277,9.95313,0,9,2,3,1,0.0,0.45014209349190776,128.14252560945832,-11.920372799807522,-23.819389399387966,0.055822704325291114
2,0,1,550,3,0,50.0,53,7022.9000000003725,3.0,0,10,2,3,1,0.0,0.45014209349190776,128.14252560945832,-11.920372799807522,0.07405260332135555,8.608041334969431e-08
2,0,0,390,4,2,74.79787,55,4079.099999999628,-19.797870000000003,0,11,2,3,1,0.0,0.45014209349190776,128.14252560945832,-11.920372799807522,-2.0238323007479124,0.00030915942031945127
2,0,4,652,2,1,37.72798,47,2428.7000000001863,9.272019999999998,0,12,2,3,1,0.0,0.45014209349190776,128.14252560945832,-11.920372799807522,-3.8979786719271914,0.0006010864273551051
2,0,1,918,1,2,13.04687,38,3682.300000000745,24.95313,0,13,2,3,1,0.0,0.45014209349190776,128.14252560945832,-11.920372799807522,-8.819389399387966,0.007403536307878842
2,0,3,774,2,1,25.3549,46,3446.100000000559,20.6451,0,14,2,3,1,0.0,0.45014209349190776,128.14252560945832,-11.920372799807522,-2.853309171554578,0.0004618579959014437
2,0,0,1000,1,0,6.87518,37,2403.2000000001863,30.12482,0,15,2,3,1,0.0,0.45014209349190776,128.14252560945832,-11.920372799807522,-8.799507474152833,0.009104143634910574
2,0,4,358,5,2,80.9736,77,2973.9000000003725,-3.9736000000000047,0,16,2,3,1,0.0,0.45014209349190776,128.14252560945832,-11.920372799807522,18.955619850003487,0.02795412383356433
2,0,2,599,3,0,43.84378,57,2672.7000000001863,13.156219999999998,0,17,2,3,1,0.0,0.45014209349190776,128.14252560945832,-11.920372799807522,5.091376792370667,0.0009237557028079146
2,0,3,843,1,2,19.19495,56,2411.5999999996275,36.80505,0,18,2,3,1,0.0,0.45014209349190776,128.14252560945832,-11.920372799807522,8.164632069909025,0.0055549554444760665
2,0,4,504,3,2,56.30039,63,2485.7999999998137,6.69961,0,19,2,3,1,0.0,0.45014209349190776,128.14252560945832,-11.920372799807522,9.032903281187423,0.0028448363745701534
2,0,5,302,5,2,93.24415,89,9431.5,-4.244150000000005,0,20,2,3,1,0.0,0.45014209349190776,128.14252560945832,-11.920372799807522,28.927893283743074,0.10236641093246808
2,0,0,599,3,0,43.84378,42,4384.099999999628,-1.8437800000000024,0,21,2,3,1,0.0,0.45014209349190776,128.14252560945832,-11.920372799807522,-9.908623207629333,0.003460562968130742
2,0,5,390,4,0,74.79787,66,4362.299999999814,-8.797870000000003,0,22,2,3,1,0.0,0.45014209349190776,128.14252560945832,-11.920372799807522,8.976167699252088,0.00485863965411875
2,0,2,302,5,1,93.24415,59,2852.399999999441,-34.244150000000005,0,23,2,3,1,0.0,0.45014209349190776,128.14252560945832,-11.920372799807522,-1.0721067162569256,0.00024145418583385205
2,0,3,390,4,1,74.79787,62,3123.2000000001863,-12.797870000000003,0,24,2,3,1,0.0,0.45014209349190776,128.14252560945832,-11.920372799807522,4.976167699252088,0.0014412092549088778
2,0,0,710,2,1,31.58063,60,2434.600000000559,28.41937,0,25,2,3,1,0.0,0.45014209349190776,128.14252560945832,-11.920372799807522,10.11788036288035,0.005213076243808014
2,0,4,918,1,0,13.04687,54,5502.5,40.95313,0,26,2,3,1,0.0,0.45014209349190776,128.14252560945832,-11.920372799807522,7.1806106006120345,0.005504993783470082
2,0,3,358,5,2,80.9736,59,4590.700000000186,-21.973600000000005,0,27,2,3,1,0.0,0.45014209349190776,128.14252560945832,-11.920372799807522,0.9556198500034867,4.1533524797137953e-05
2,0,2,425,4,1,68.59844,57,4962.300000000745,-11.598439999999997,0,28,2,3,1,0.0,0.45014209349190776,128.14252560945832,-11.920372799807522,1.0006335017980135,3.618410722317851e-05
2,0,0,302,5,0,93.24415,40,2943.9000000003725,-53.244150000000005,0,29,2,3,1,0.0,0.45014209349190776,128.14252560945832,-11.920372799807522,-20.072106716256926,0.051990137244795114
2,0,2,774,2,2,25.3549,63,3308.4000000003725,37.6451,0,30,2,3,1,0.0,0.45014209349190776,128.14252560945832,-11.920372799807522,14.146690828445422,0.012851895805062944
2,0,3,463,4,2,62.42097,59,6376.300000000745,-3.420969999999997,1,31,2,3,1,0.0,0.45014209349190776,128.14252560945832,-11.920372799807522,4.021469018713979,0.0006252526979926825
2,0,4,843,1,2,19.19495,59,4661.0,39.80505,1,32,2,3,1,0.0,0.45014209349190776,128.14252560945832,-11.920372799807522,11.164632069909025,0.010263138624445176
2,0,0,358,5,1,80.9736,56,7821.5,-24.973600000000005,1,33,2,3,1,0.0,0.45014209349190776,128.14252560945832,-11.920372799807522,-2.0443801499965133,0.00041400252356998507
2,0,1,599,3,2,43.84378,57,9626.39999999944,13.156219999999998,1,34,2,3,1,0.0,0.45014209349190776,128.14252560945832,-11.920372799807522,5.091376792370667,0.0009237557028079146
2,0,5,329,5,0,87.0672,60,3047.2999999998137,-27.0672,1,35,2,3,1,0.0,0.45014209349190776,128.14252560945832,-11.920372799807522,0.9486435488787848,4.542169977758946e-05
2,0,0,550,3,2,50.0,57,5754.0,7.0,1,36,2,3,1,0.0,0.45014209349190776,128.14252560945832,-11.920372799807522,4.0740526033213555,0.000550165137564754
2,0,5,425,4,2,68.59844,55,5558.099999999628,-13.598439999999997,1,37,2,3,1,0.0,0.45014209349190776,128.14252560945832,-11.920372799807522,-0.9993664982019865,6.601827838852552e-05
2,0,2,710,2,1,31.58063,58,7432.0999999996275,26.41937,1,38,2,3,1,0.0,0.45014209349190776,128.14252560945832,-11.920372799807522,8.11788036288035,0.003372332496505597
2,0,5,1000,1,2,6.87518,60,7325.900000000372,53.12482,1,39,2,3,1,0.0,0.45014209349190776,128.14252560945832,-11.920372799807522,14.200492525847167,0.02620174296424921
2,0,4,329,5,1,87.0672,57,5452.200000000186,-30.0672,1,40,2,3,1,0.0,0.45014209349190776,128.14252560945832,-11.920372799807522,-2.0513564511212152,0.0005425509916274211
2,0,3,1000,1,0,6.87518,42,5680.700000000186,35.12482,1,41,2,3,1,0.0,0.45014209349190776,128.14252560945832,-11.920372799807522,-3.7995074741528327,0.0015589925370159319
2,0,4,463,4,0,62.42097,60,5501.799999999814,-2.420969999999997,1,42,2,3,1,0.0,0.45014209349190776,128.14252560945832,-11.920372799807522,5.021469018713979,0.0009856004025251307
2,0,0,774,2,0,25.3549,56,36629.09999999963,30.6451,1,43,2,3,1,0.0,0.45014209349190776,128.14252560945832,-11.920372799807522,7.146690828445422,0.0033450971375258297
2,0,2,463,4,0,62.42097,66,4384.700000000186,3.579030000000003,1,44,2,3,1,0.0,0.45014209349190776,128.14252560945832,-11.920372799807522,11.02146901871398,0.004862216157922451
2,0,5,652,2,2,37.72798,63,3122.100000000559,25.272019999999998,1,45,2,3,1,0.0,0.45014209349190776,128.14252560945832,-11.920372799807522,12.102021328072809,0.0060361457462453985
2,0,0,425,4,1,68.59844,66,21974.5,-2.5984399999999965,1,46,2,3,1,0.0,0.45014209349190776,128.14252560945832,-11.920372799807522,10.000633501798013,0.004850775599684009
2,0,2,329,5,2,87.0672,60,3915.7999999998137,-27.0672,1,47,2,3,1,0.0,0.45014209349190776,128.14252560945832,-11.920372799807522,0.9486435488787848,4.542169977758946e-05
2,0,1,652,2,2,37.72798,56,5709.200000000186,18.272019999999998,1,48,2,3,1,0.0,0.45014209349190776,128.14252560945832,-11.920372799807522,5.102021328072809,0.0010874094833365309
2,0,0,918,1,2,13.04687,37,4120.800000000745,23.95313,1,49,2,3,1,0.0,0.45014209349190776,128.14252560945832,-11.920372799807522,-9.819389399387966,0.009227287333532331
2,0,3,652,2,0,37.72798,54,2884.4000000003725,16.272019999999998,1,50,2,3,1,0.0,0.45014209349190776,128.14252560945832,-11.920372799807522,3.1020213280728086,0.00040802706847524396
2,0,2,918,1,0,13.04687,42,5447.700000000186,28.95313,1,51,2,3,1,0.0,0.45014209349190776,128.14252560945832,-11.920372799807522,-4.8193893993879655,0.0021145229321801054
2,0,4,550,3,1,50.0,56,4342.799999999814,6.0,1,52,2,3,1,0.0,0.45014209349190776,128.14252560945832,-11.920372799807522,3.0740526033213555,0.0003120539250495399
2,0,3,302,5,0,93.24415,57,2338.5999999996275,-36.244150000000005,1,53,2,3,1,0.0,0.45014209349190776,128.14252560945832,-11.920372799807522,-3.0721067162569256,0.0014367549167640314
2,0,5,550,3,2,50.0,52,5024.700000000186,2.0,1,54,2,3,1,0.0,0.45014209349190776,128.14252560945832,-11.920372799807522,-0.9259473966786445,3.0218729837770136e-05
2,0,1,425,4,2,68.59844,59,18912.39999999944,-9.598439999999997,1,55,2,3,1,0.0,0.45014209349190776,128.14252560945832,-11.920372799807522,3.0006335017980135,0.0004062566239531762
2,0,3,599,3,0,43.84378,56,3539.5999999996275,12.156219999999998,1,56,2,3,1,0.0,0.45014209349190776,128.14252560945832,-11.920372799807522,4.091376792370667,0.0005975754469496863
2,0,1,1000,1,1,6.87518,41,6583.399999999441,34.12482,1,57,2,3,1,0.0,0.45014209349190776,128.14252560945832,-11.920372799807522,-4.799507474152833,0.0025674885113808124
2,0,4,710,2,0,31.58063,56,4476.200000000186,24.41937,1,58,2,3,1,0.0,0.45014209349190776,128.14252560945832,-11.920372799807522,6.117880362880349,0.0019308939909152242
2,0,1,358,5,1,80.9736,67,2768.100000000559,-13.973600000000005,1,59,2,3,1,0.0,0.45014209349190776,128.14252560945832,-11.920372799807522,8.955619850003487,0.006066726190830331
2,0,2,504,3,2,56.30039,61,2331.0,4.69961,1,60,2,3,1,0.0,0.45014209349190776,128.14252560945832,-11.920372799807522,7.032903281187423,0.001717298143472244
2,0,2,358,5,0,80.9736,58,1780.0,-22.973600000000005,2,61,2,3,1,0.0,0.45014209349190776,128.14252560945832,-11.920372799807522,-0.044380149996513296,6.179782052614568e-06
2,0,3,550,3,1,50.0,57,1173.3999999994412,7.0,2,62,2,3,1,0.0,0.45014209349190776,128.14252560945832,-11.920372799807522,4.0740526033213555,0.000550165137564754
2,0,2,652,2,0,37.72798,54,2421.4000000003725,16.272019999999998,2,63,2,3,1,0.0,0.45014209349190776,128.14252560945832,-11.920372799807522,3.1020213280728086,0.00040802706847524396
2,0,4,599,3,0,43.84378,53,3027.5999999996275,9.156219999999998,2,64,2,3,1,0.0,0.45014209349190776,128.14252560945832,-11.920372799807522,1.0913767923706672,4.3578170986216324e-05
2,0,5,710,2,1,31.58063,47,2946.9000000003725,15.41937,2,65,2,3,1,0.0,0.45014209349190776,128.14252560945832,-11.920372799807522,-2.8821196371196507,0.000385823081945093
2,0,4,390,4,1,74.79787,64,2598.600000000559,-10.797870000000003,2,66,2,3,1,0.0,0.45014209349190776,128.14252560945832,-11.920372799807522,6.976167699252088,0.002898056747291587
2,0,5,504,3,0,56.30039,60,1819.5,3.69961,2,67,2,3,1,0.0,0.45014209349190776,128.14252560945832,-11.920372799807522,6.032903281187423,0.00125967783488368
2,0,0,843,1,1,19.19495,52,4726.199999999255,32.80505,2,68,2,3,1,0.0,0.45014209349190776,128.14252560945832,-11.920372799807522,4.164632069909025,0.0015078314077745614
2,0,1,504,3,1,56.30039,55,2615.9000000003725,-1.3003900000000002,2,69,2,3,1,0.0,0.45014209349190776,128.14252560945832,-11.920372799807522,1.0329032811874228,3.306436154477158e-05
2,0,0,463,4,0,62.42097,45,3668.900000000373,-17.420969999999997,2,70,2,3,1,0.0,0.45014209349190776,128.14252560945832,-11.920372799807522,-9.97853098128602,0.004153032475551556
2,0,3,918,1,1,13.04687,55,1951.2000000001865,41.95313,2,71,2,3,1,0.0,0.45014209349190776,128.14252560945832,-11.920372799807522,8.180610600612034,0.0070914269935724765
2,0,5,463,4,1,62.42097,58,2975.300000000745,-4.420969999999997,2,72,2,3,1,0.0,0.45014209349190776,128.14252560945832,-11.920372799807522,3.0214690187139794,0.0003465492567079783
2,0,0,652,2,2,37.72798,57,2776.399999999441,19.272019999999998,2,73,2,3,1,0.0,0.45014209349190776,128.14252560945832,-11.920372799807522,6.102021328072809,0.0015495243960478582
2,0,1,329,5,2,87.0672,74,2041.7000000001865,-13.0672,2,74,2,3,1,0.0,0.45014209349190776,128.14252560945832,-11.920372799807522,14.948643548878785,0.021576740150409748
2,0,4,774,2,2,25.3549,56,1580.2999999998135,30.6451,2,75,2,3,1,0.0,0.45014209349190776,128.14252560945832,-11.920372799807522,7.146690828445422,0.0033450971375258297
2,0,1,463,4,0,62.42097,52,2540.100000000559,-10.420969999999997,2,76,2,3,1,0.0,0.45014209349190776,128.14252560945832,-11.920372799807522,-2.9785309812860206,0.000388858137202384
2,0,4,302,5,0,93.24415,58,2465.399999999441,-35.244150000000005,2,77,2,3,1,0.0,0.45014209349190776,128.14252560945832,-11.920372799807522,-2.0721067162569256,0.0007140478141004138
2,0,1,774,2,1,25.3549,45,4356.099999999628,19.6451,2,78,2,3,1,0.0,0.45014209349190776,128.14252560945832,-11.920372799807522,-3.853309171554578,0.0008657512578095971
2,0,4,1000,1,1,6.87518,44,7571.900000000372,37.12482,2,79,2,3,1,0.0,0.45014209349190776,128.14252560945832,-11.920372799807522,-1.7995074741528327,0.0002928019561072434
2,0,3,710,2,2,31.58063,58,1790.699999999255,26.41937,2,80,2,3,1,0.0,0.45014209349190776,128.14252560945832,-11.920372799807522,8.11788036288035,0.003372332496505597
2,0,5,358,5,1,80.9736,78,2509.0999999996275,-2.9736000000000047,2,81,2,3,1,0.0,0.45014209349190776,128.14252560945832,-11.920372799807522,19.955619850003487,0.031020169014016163
2,0,0,504,3,1,56.30039,40,3883.0,-16.30039,2,82,2,3,1,0.0,0.45014209349190776,128.14252560945832,-11.920372799807522,-13.967096718812577,0.006968104637567152
2,0,2,390,4,2,74.79787,58,1595.6000000005588,-16.797870000000003,2,83,2,3,1,0.0,0.45014209349190776,128.14252560945832,-11.920372799807522,0.9761676992520876,3.872051347681324e-05
2,0,0,329,5,2,87.0672,54,2452.600000000559,-33.0672,2,84,2,3,1,0.0,0.45014209349190776,128.14252560945832,-11.920372799807522,-5.051356451121215,0.0028435567230855087
2,0,5,843,1,1,19.19495,60,4374.100000000559,40.80505,2,85,2,3,1,0.0,0.45014209349190776,128.14252560945832,-11.920372799807522,12.164632069909025,0.012151169237281162
2,0,2,550,3,1,50.0,56,1553.7000000001865,6.0,2,86,2,3,1,0.0,0.45014209349190776,128.14252560945832,-11.920372799807522,3.0740526033213555,0.0003120539250495399
2,0,3,329,5,1,87.0672,68,1524.3999999994412,-19.0672,2,87,2,3,1,0.0,0.45014209349190776,128.14252560945832,-11.920372799807522,8.948643548878785,0.007538695070707285
2,0,1,843,1,0,19.19495,40,1365.9000000003723,20.80505,2,88,2,3,1,0.0,0.45014209349190776,128.14252560945832,-11.920372799807522,-7.835367930090975,0.004660997834291545
2,0,3,425,4,0,68.59844,58,2011.800000000745,-10.598439999999997,2,89,2,3,1,0.0,0.45014209349190776,128.14252560945832,-11.920372799807522,2.0006335017980135,0.00017123202960125925
2,0,2,1000,1,2,6.87518,19,5719.099999999628,12.12482,2,90,2,3,1,0.0,0.45014209349190776,128.14252560945832,-11.920372799807522,-26.799507474152833,0.0880719819669853
2,0,2,710,2,2,31.58063,57,4670.9000000003725,25.41937,3,91,2,3,1,0.0,0.45014209349190776,128.14252560945832,-11.920372799807522,7.117880362880349,0.002601700088496405
2,0,0,302,5,1,93.24415,60,1123.199999999255,-33.244150000000005,3,92,2,3,1,0.0,0.45014209349190776,128.14252560945832,-11.920372799807522,-0.07210671625692555,1.897403196434634e-05
2,0,3,710,2,2,31.58063,43,3517.600000000559,11.41937,3,93,2,3,1,0.0,0.45014209349190776,128.14252560945832,-11.920372799807522,-6.882119637119651,0.002294608971308878
2,0,2,1000,1,1,6.87518,37,1177.9000000003723,30.12482,3,94,2,3,1,0.0,0.45014209349190776,128.14252560945832,-11.920372799807522,-8.799507474152833,0.009104143634910574
2,0,0,774,2,2,25.3549,44,1809.6000000005588,18.6451,3,95,2,3,1,0.0,0.45014209349190776,128.14252560945832,-11.920372799807522,-4.853309171554578,0.0013955021880942215
2,0,4,504,3,0,56.30039,46,1998.9000000003723,-10.30039,3,96,2,3,1,0.0,0.45014209349190776,128.14252560945832,-11.920372799807522,-7.967096718812577,0.0022834100018711617
2,0,1,774,2,1,25.3549,45,2856.0999999996275,19.6451,3,97,2,3,1,0.0,0.45014209349190776,128.14252560945832,-11.920372799807522,-3.853309171554578,0.0008657512578095971
2,0,2,329,5,1,87.0672,47,2053.0,-40.0672,3,98,2,3,1,0.0,0.45014209349190776,128.14252560945832,-11.920372799807522,-12.051356451121215,0.0152276451394087
2,0,1,843,1,0,19.19495,66,2953.600000000559,46.80505,3,99,2,3,1,0.0,0.45014209349190776,128.14252560945832,-11.920372799807522,18.164632069909025,0.02682503321918301
2,0,2,463,4,1,62.42097,57,2543.600000000559,-5.420969999999997,3,100,2,3,1,0.0,0.45014209349190776,128.14252560945832,-11.920372799807522,2.0214690187139794,0.0001494900786710186
2,0,4,652,2,1,37.72798,57,2409.600000000559,19.272019999999998,3,101,2,3,1,0.0,0.45014209349190776,128.14252560945832,-11.920372799807522,6.102021328072809,0.0015495243960478582
2,0,0,504,3,2,56.30039,56,2398.5999999996275,-0.30039000000000016,3,102,2,3,1,0.0,0.45014209349190776,128.14252560945832,-11.920372799807522,2.032903281187423,0.0001368553135986985
2,0,4,843,1,1,19.19495,57,2276.5,37.80505,3,103,2,3,1,0.0,0.45014209349190776,128.14252560945832,-11.920372799807522,9.164632069909025,0.006965031728042626
2,0,3,550,3,0,50.0,53,6544.200000000186,3.0,3,104,2,3,1,0.0,0.45014209349190776,128.14252560945832,-11.920372799807522,0.07405260332135555,8.608041334969431e-08
2,0,4,329,5,2,87.0672,54,3247.2999999998137,-33.0672,3,105,2,3,1,0.0,0.45014209349190776,128.14252560945832,-11.920372799807522,-5.051356451121215,0.0028435567230855087
2,0,3,463,4,2,62.42097,55,2720.7999999998137,-7.420969999999997,3,106,2,3,1,0.0,0.45014209349190776,128.14252560945832,-11.920372799807522,0.021469018713979438,3.0451234033195235e-07
2,0,5,918,1,1,13.04687,54,10102.400000000373,40.95313,3,107,2,3,1,0.0,0.45014209349190776,128.14252560945832,-11.920372799807522,7.1806106006120345,0.005504993783470082
2,0,4,463,4,0,62.42097,55,2768.5,-7.420969999999997,3,108,2,3,1,0.0,0.45014209349190776,128.14252560945832,-11.920372799807522,0.021469018713979438,3.0451234033195235e-07
2,0,1,599,3,0,43.84378,55,4838.5,11.156219999999998,3,109,2,3,1,0.0,0.45014209349190776,128.14252560945832,-11.920372799807522,3.091376792370667,0.00034215243969332735
2,0,5,390,4,2,74.79787,57,6226.600000000559,-17.797870000000003,3,110,2,3,1,0.0,0.45014209349190776,128.14252560945832,-11.920372799807522,-0.023832300747912427,2.9329621465795974e-06
2,0,2,550,3,0,50.0,56,1809.1000000005588,6.0,3,111,2,3,1,0.0,0.45014209349190776,128.14252560945832,-11.920372799807522,3.0740526033213555,0.0003120539250495399
2,0,1,390,4,0,74.79787,55,3782.7999999998137,-19.797870000000003,3,112,2,3,1,0.0,0.45014209349190776,128.14252560945832,-11.920372799807522,-2.0238323007479124,0.00030915942031945127
2,0,5,504,3,0,56.30039,58,2246.5,1.6996099999999998,3,113,2,3,1,0.0,0.45014209349190776,128.14252560945832,-11.920372799807522,4.032903281187423,0.0005567348316273346
2,0,0,843,1,0,19.19495,39,2296.2000000001863,19.80505,3,114,2,3,1,0.0,0.45014209349190776,128.14252560945832,-11.920372799807522,-8.835367930090975,0.00595932941658504
2,0,5,774,2,2,25.3549,45,3427.5,19.6451,3,115,2,3,1,0.0,0.45014209349190776,128.14252560945832,-11.920372799807522,-3.853309171554578,0.0008657512578095971
2,0,3,329,5,2,87.0672,61,3174.399999999441,-26.0672,3,116,2,3,1,0.0,0.45014209349190776,128.14252560945832,-11.920372799807522,1.9486435488787848,0.00028057336685170233
2,0,0,390,4,2,74.79787,59,3496.0,-15.797870000000003,3,117,2,3,1,0.0,0.45014209349190776,128.14252560945832,-11.920372799807522,1.9761676992520876,0.0002004419184181599
2,0,5,358,5,1,80.9736,61,2480.7999999998137,-19.973600000000005,3,118,2,3,1,0.0,0.45014209349190776,128.14252560945832,-11.920372799807522,2.9556198500034867,0.000590771237292602
2,0,3,843,1,0,19.19495,60,4421.200000000186,40.80505,3,119,2,3,1,0.0,0.45014209349190776,128.14252560945832,-11.920372799807522,12.164632069909025,0.012151169237281162
2,0,1,329,5,1,87.0672,58,1598.0,-29.0672,3,120,2,3,1,0.0,0.45014209349190776,128.14252560945832,-11.920372799807522,-1.0513564511212152,0.00017641051216544889
2,0,5,550,3,1,50.0,57,3380.0999999996275,7.0,4,121,2,3,1,0.0,0.45014209349190776,128.14252560945832,-11.920372799807522,4.0740526033213555,0.000550165137564754
2,0,3,390,4,0,74.79787,55,4593.0,-19.797870000000003,4,122,2,3,1,0.0,0.45014209349190776,128.14252560945832,-11.920372799807522,-2.0238323007479124,0.00030915942031945127
2,0,1,1000,1,2,6.87518,41,2266.0,34.12482,4,123,2,3,1,0.0,0.45014209349190776,128.14252560945832,-11.920372799807522,-4.799507474152833,0.0025674885113808124
2,0,3,599,3,1,43.84378,42,1859.5,-1.8437800000000024,4,124,2,3,1,0.0,0.45014209349190776,128.14252560945832,-11.920372799807522,-9.908623207629333,0.003460562968130742
2,0,1,463,4,2,62.42097,54,3001.2000000001863,-8.420969999999997,4,125,2,3,1,0.0,0.45014209349190776,128.14252560945832,-11.920372799807522,-0.9785309812860206,4.8178124046605045e-05
2,0,3,918,1,2,13.04687,42,2660.0,28.95313,4,126,2,3,1,0.0,0.45014209349190776,128.14252560945832,-11.920372799807522,-4.8193893993879655,0.0021145229321801054
2,0,1,302,5,2,93.24415,57,2187.199999999255,-36.244150000000005,4,127,2,3,1,0.0,0.45014209349190776,128.14252560945832,-11.920372799807522,-3.0721067162569256,0.0014367549167640314
2,0,5,1000,1,0,6.87518,43,2430.300000000745,36.12482,4,128,2,3,1,0.0,0.45014209349190776,128.14252560945832,-11.920372799807522,-2.7995074741528327,0.0008007636852580755
2,0,3,302,5,1,93.24415,44,4898.399999999441,-49.244150000000005,4,129,2,3,1,0.0,0.45014209349190776,128.14252560945832,-11.920372799807522,-16.072106716256926,0.03359227342152316
2,0,1,652,2,0,37.72798,47,2551.2999999998137,9.272019999999998,4,130,2,3,1,0.0,0.45014209349190776,128.14252560945832,-11.920372799807522,-3.8979786719271914,0.0006010864273551051
2,0,4,425,4,1,68.59844,42,4347.4000000003725,-26.598439999999997,4,131,2,3,1,0.0,0.45014209349190776,128.14252560945832,-11.920372799807522,-13.999366498201987,0.01000766590841231
2,0,0,550,3,0,50.0,37,1474.6000000005588,-13.0,4,132,2,3,1,0.0,0.45014209349190776,128.14252560945832,-11.920372799807522,-15.925947396678644,0.008529524329393108
2,0,4,302,5,0,93.24415,82,1403.0,-11.244150000000005,4,133,2,3,1,0.0,0.45014209349190776,128.14252560945832,-11.920372799807522,21.927893283743074,0.058403119669290404
2,0,1,550,3,2,50.0,42,3164.0999999996275,-8.0,4,134,2,3,1,0.0,0.45014209349190776,128.14252560945832,-11.920372799807522,-10.925947396678644,0.004019898325751947
2,0,2,358,5,0,80.9736,41,2155.5999999996275,-39.973600000000005,4,135,2,3,1,0.0,0.45014209349190776,128.14252560945832,-11.920372799807522,-17.044380149996513,0.023810207732722993
2,0,4,1000,1,2,6.87518,43,2141.2000000001863,36.12482,4,136,2,3,1,0.0,0.45014209349190776,128.14252560945832,-11.920372799807522,-2.7995074741528327,0.0008007636852580755
2,0,5,425,4,0,68.59844,46,5340.5,-22.598439999999997,4,137,2,3,1,0.0,0.45014209349190776,128.14252560945832,-11.920372799807522,-9.999366498201987,0.005149117311337478
2,0,0,358,5,0,80.9736,41,2017.6000000005588,-39.973600000000005,4,138,2,3,1,0.0,0.45014209349190776,128.14252560945832,-11.920372799807522,-17.044380149996513,0.023810207732722993
2,0,5,710,2,1,31.58063,47,2927.7999999998137,15.41937,4,139,2,3,1,0.0,0.45014209349190776,128.14252560945832,-11.920372799807522,-2.8821196371196507,0.000385823081945093
2,0,2,843,1,0,19.19495,41,2792.7000000001863,21.80505,4,140,2,3,1,0.0,0.45014209349190776,128.14252560945832,-11.920372799807522,-6.835367930090975,0.0035219843617545223
2,0,4,774,2,2,25.3549,45,3027.7999999998137,19.6451,4,141,2,3,1,0.0,0.45014209349190776,128.14252560945832,-11.920372799807522,-3.853309171554578,0.0008657512578095971
2,0,0,463,4,1,62.42097,44,2561.0999999996275,-18.420969999999997,4,142,2,3,1,0.0,0.45014209349190776,128.14252560945832,-11.920372799807522,-10.97853098128602,0.005017348719735271
2,0,2,652,2,0,37.72798,41,1778.2999999998135,3.2720199999999977,4,143,2,3,1,0.0,0.45014209349190776,128.14252560945832,-11.920372799807522,-9.897978671927191,0.003949582215121342
2,0,5,329,5,0,87.0672,43,2481.699999999255,-44.0672,4,144,2,3,1,0.0,0.45014209349190776,128.14252560945832,-11.920372799807522,-16.051356451121215,0.02671374283285801
2,0,2,504,3,2,56.30039,45,3383.5999999996275,-11.30039,4,145,2,3,1,0.0,0.45014209349190776,128.14252560945832,-11.920372799807522,-8.967096718812577,0.0028872777628865085
2,0,3,652,2,1,37.72798,39,3100.7000000001863,1.2720199999999977,4,146,2,3,1,0.0,0.45014209349190776,128.14252560945832,-11.920372799807522,-11.897978671927191,0.005718673905873736
2,0,4,550,3,2,50.0,40,6817.0,-10.0,4,147,2,3,1,0.0,0.45014209349190776,128.14252560945832,-11.920372799807522,-12.925947396678644,0.005622565830753686
2,0,0,710,2,0,31.58063,41,1697.5,9.41937,4,148,2,3,1,0.0,0.45014209349190776,128.14252560945832,-11.920372799807522,-8.88211963711965,0.003847959778558836
2,0,2,425,4,0,68.59844,39,4934.0,-29.598439999999997,4,149,2,3,1,0.0,0.45014209349190776,128.14252560945832,-11.920372799807522,-16.999366498201987,0.014701332411943714
2,0,0,918,1,1,13.04687,42,2160.600000000559,28.95313,4,150,2,3,1,0.0,0.45014209349190776,128.14252560945832,-11.920372799807522,-4.8193893993879655,0.0021145229321801054
2,0,5,843,1,2,19.19495,39,2347.5999999996275,19.80505,5,151,2,3,1,0.0,0.45014209349190776,128.14252560945832,-11.920372799807522,-8.835367930090975,0.00595932941658504
2,0,2,774,2,1,25.3549,43,2002.5,17.6451,5,152,2,3,1,0.0,0.45014209349190776,128.14252560945832,-11.920372799807522,-5.853309171554578,0.002051110786755318
2,0,3,1000,1,1,6.87518,40,1432.0999999996277,33.12482,5,153,2,3,1,0.0,0.45014209349190776,128.14252560945832,-11.920372799807522,-5.799507474152833,0.0038262516083527164
2,0,5,652,2,0,37.72798,42,2311.9000000003725,4.272019999999998,5,154,2,3,1,0.0,0.45014209349190776,128.14252560945832,-11.920372799807522,-8.897978671927191,0.0031874600750258298
2,0,2,599,3,1,43.84378,45,3163.0,1.1562199999999976,5,155,2,3,1,0.0,0.45014209349190776,128.14252560945832,-11.920372799807522,-6.908623207629333,0.0016795710402325334
2,0,3,425,4,1,68.59844,41,1512.0,-27.598439999999997,5,156,2,3,1,0.0,0.45014209349190776,128.14252560945832,-11.920372799807522,-14.999366498201987,0.01147224473761561
2,0,0,329,5,2,87.0672,46,4070.200000000186,-41.0672,5,157,2,3,1,0.0,0.45014209349190776,128.14252560945832,-11.920372799807522,-13.051356451121215,0.017798523489502987
2,0,2,390,4,2,74.79787,42,1883.6000000005588,-32.79787,5,158,2,3,1,0.0,0.45014209349190776,128.14252560945832,-11.920372799807522,-15.023832300747912,0.01457818212552663
2,0,3,358,5,0,80.9736,41,5846.800000000745,-39.973600000000005,5,159,2,3,1,0.0,0.45014209349190776,128.14252560945832,-11.920372799807522,-17.044380149996513,0.023810207732722993
2,0,0,1000,1,2,6.87518,43,1298.7000000001865,36.12482,5,160,2,3,1,0.0,0.45014209349190776,128.14252560945832,-11.920372799807522,-2.7995074741528327,0.0008007636852580755
2,0,5,302,5,2,93.24415,60,1550.7000000001865,-33.244150000000005,5,161,2,3,1,0.0,0.45014209349190776,128.14252560945832,-11.920372799807522,-0.07210671625692555,1.897403196434634e-05
2,0,4,599,3,1,43.84378,61,1743.2999999998135,17.156219999999998,5,162,2,3,1,0.0,0.45014209349190776,128.14252560945832,-11.920372799807522,9.091376792370667,0.0029360492122595173
2,0,0,652,2,1,37.72798,61,2115.0,23.272019999999998,5,163,2,3,1,0.0,0.45014209349190776,128.14252560945832,-11.920372799807522,10.102021328072809,0.0042141420820977285
2,0,3,504,3,2,56.30039,59,2082.9000000003725,2.69961,5,164,2,3,1,0.0,0.45014209349190776,128.14252560945832,-11.920372799807522,5.032903281187423,0.0008728233976020434
2,0,4,710,2,0,31.58063,53,11614.200000000186,21.41937,5,165,2,3,1,0.0,0.45014209349190776,128.14252560945832,-11.920372799807522,3.1178803628803493,0.0005174335607397475
2,0,1,918,1,1,13.04687,57,3276.300000000745,43.95313,5,166,2,3,1,0.0,0.45014209349190776,128.14252560945832,-11.920372799807522,10.180610600612034,0.01086609063185184
2,0,5,599,3,2,43.84378,58,4012.2999999998137,14.156219999999998,5,167,2,3,1,0.0,0.45014209349190776,128.14252560945832,-11.920372799807522,6.091376792370667,0.0013206932072680115
2,0,1,710,2,2,31.58063,60,1685.4000000003723,28.41937,5,168,2,3,1,0.0,0.45014209349190776,128.14252560945832,-11.920372799807522,10.11788036288035,0.005213076243808014
2,0,0,425,4,0,68.59844,58,4098.5,-10.598439999999997,5,169,2,3,1,0.0,0.45014209349190776,128.14252560945832,-11.920372799807522,2.0006335017980135,0.00017123202960125925
2,0,1,358,5,0,80.9736,59,4348.4000000003725,-21.973600000000005,5,170,2,3,1,0.0,0.45014209349190776,128.14252560945832,-11.920372799807522,0.9556198500034867,4.1533524797137953e-05
2,0,5,463,4,1,62.42097,61,3364.399999999441,-1.420969999999997,5,171,2,3,1,0.0,0.45014209349190776,128.14252560945832,-11.920372799807522,6.021469018713979,0.0014275923703053236
2,0,2,302,5,2,93.24415,60,1530.0,-33.244150000000005,5,172,2,3,1,0.0,0.45014209349190776,128.14252560945832,-11.920372799807522,-0.07210671625692555,1.897403196434634e-05
2,0,1,425,4,1,68.59844,59,1770.199999999255,-9.598439999999997,5,173,2,3,1,0.0,0.45014209349190776,128.14252560945832,-11.920372799807522,3.0006335017980135,0.0004062566239531762
2,0,4,918,1,0,13.04687,59,3414.2000000001863,45.95313,5,174,2,3,1,0.0,0.45014209349190776,128.14252560945832,-11.920372799807522,12.180610600612034,0.01544315056089729
2,0,1,504,3,1,56.30039,59,7764.5999999996275,2.69961,5,175,2,3,1,0.0,0.45014209349190776,128.14252560945832,-11.920372799807522,5.032903281187423,0.0008728233976020434
2,0,4,390,4,2,74.79787,58,3990.599999999628,-16.797870000000003,5,176,2,3,1,0.0,0.45014209349190776,128.14252560945832,-11.920372799807522,0.9761676992520876,3.872051347681324e-05
2,0,2,918,1,2,13.04687,62,8898.799999999814,48.95313,5,177,2,3,1,0.0,0.45014209349190776,128.14252560945832,-11.920372799807522,15.180610600612034,0.023813233499651885
2,0,3,774,2,0,25.3549,60,1610.1000000005588,34.6451,5,178,2,3,1,0.0,0.45014209349190776,128.14252560945832,-11.920372799807522,11.146690828445422,0.008022407508716781
2,0,4,358,5,1,80.9736,59,10467.299999999814,-21.973600000000005,5,179,2,3,1,0.0,0.45014209349190776,128.14252560945832,-11.920372799807522,0.9556198500034867,4.1533524797137953e-05
2,0,0,599,3,1,43.84378,61,1713.5,17.156219999999998,5,180,2,3,1,0.0,0.45014209349190776,128.14252560945832,-11.920372799807522,9.091376792370667,0.0029360492122595173
3,0,1,918,1,0,13.04687,0,2947.9000000953674,-13.04687,0,1,6,0,0,33.0,0.9417957862352193,602.4349294526681,-87.48153766164586,-5.618611489919579,0.002414322567321717
3,0,0,302,5,1,93.24415,100,4912.199999928474,6.755849999999995,0,2,6,0,0,33.0,0.9417957862352193,602.4349294526681,-87.48153766164586,-2.8779932681084404,0.0006964557860627182
3,0,4,425,4,2,68.59844,50,6333.200000047684,-18.598439999999997,0,3,6,0,0,33.0,0.9417957862352193,602.4349294526681,-87.48153766164586,-22.98886288976776,0.01693877611529269
3,0,1,302,5,0,93.24415,95,3466.600000023842,1.7558499999999952,0,4,6,0,0,33.0,0.9417957862352193,602.4349294526681,-87.48153766164586,-7.87799326810844,0.004996881486762127
3,0,0,463,4,2,62.42097,37,2046.899999976158,-25.420969999999997,0,5,6,0,0,33.0,0.9417957862352193,602.4349294526681,-87.48153766164586,-28.497129013720567,0.02122250126991454
3,0,3,774,2,0,25.3549,3,2173.599999904633,-22.3549,0,6,6,0,0,33.0,0.9417957862352193,602.4349294526681,-87.48153766164586,-17.5451940840841,0.012863826667579707
3,0,0,918,1,2,13.04687,1,2854.9000000953674,-12.04687,0,7,6,0,0,33.0,0.9417957862352193,602.4349294526681,-87.48153766164586,-4.618611489919579,0.0016975553124263106
3,0,3,425,4,2,68.59844,86,3179.0,17.401560000000003,0,8,6,0,0,33.0,0.9417957862352193,602.4349294526681,-87.48153766164586,13.01113711023224,0.005112444778575872
3,0,0,652,2,0,37.72798,24,2073.100000023842,-13.727980000000002,0,9,6,0,0,33.0,0.9417957862352193,602.4349294526681,-87.48153766164586,-11.550667059338195,0.0036755291073237405
3,0,3,918,1,1,13.04687,0,2697.5,-13.04687,0,10,6,0,0,33.0,0.9417957862352193,602.4349294526681,-87.48153766164586,-5.618611489919579,0.0024143225673217894
3,0,2,425,4,0,68.59844,79,3717.600000023842,10.401560000000003,0,11,6,0,0,33.0,0.9417957862352193,602.4349294526681,-87.48153766164586,6.011137110232241,0.0010427447862159942
3,0,1,599,3,0,43.84378,32,1990.5,-11.843780000000002,0,12,6,0,0,33.0,0.9417957862352193,602.4349294526681,-87.48153766164586,-10.967611101053983,0.0028656317790557995
3,0,2,652,2,1,37.72798,47,2448.6999999284744,9.272019999999998,0,13,6,0,0,33.0,0.9417957862352193,602.4349294526681,-87.48153766164586,11.449332940661805,0.003111000338030612
3,0,1,463,4,2,62.42097,52,2666.200000047684,-10.420969999999997,0,14,6,0,0,33.0,0.9417957862352193,602.4349294526681,-87.48153766164586,-13.497129013720567,0.004865278539008174
3,0,4,302,5,1,93.24415,100,3546.899999976158,6.755849999999995,0,15,6,0,0,33.0,0.9417957862352193,602.4349294526681,-87.48153766164586,-2.8779932681084404,0.0006964557860627182
3,0,1,652,2,0,37.72798,25,2368.200000047684,-12.727980000000002,0,16,6,0,0,33.0,0.9417957862352193,602.4349294526681,-87.48153766164586,-10.550667059338195,0.003087487510034609
3,0,3,504,3,1,56.30039,45,2838.3000000715256,-11.30039,0,17,6,0,0,33.0,0.9417957862352193,602.4349294526681,-87.48153766164586,-13.07438930491896,0.003983715672778616
3,0,5,302,5,1,93.24415,95,2866.2999999523163,1.7558499999999952,0,18,6,0,0,33.0,0.9417957862352193,602.4349294526681,-87.48153766164586,-7.87799326810844,0.004996881486762127
3,0,2,1000,1,2,6.87518,0,3387.200000047684,-6.87518,0,19,6,0,0,33.0,0.9417957862352193,602.4349294526681,-87.48153766164586,1.8661241430406583,0.00012380673760133896
3,0,5,504,3,2,56.30039,48,4437.799999952316,-8.30039,0,20,6,0,0,33.0,0.9417957862352193,602.4349294526681,-87.48153766164586,-10.07438930491896,0.0023989353395778043
3,0,3,329,5,1,87.0672,92,3809.6999999284735,4.9328,0,21,6,0,0,33.0,0.9417957862352193,602.4349294526681,-87.48153766164586,-3.3868850400128707,0.0007811810700119626
3,0,5,918,1,1,13.04687,8,2372.5,-5.04687,0,22,6,0,0,33.0,0.9417957862352193,602.4349294526681,-87.48153766164586,2.381388510080421,0.00020560979867978508
3,0,0,504,3,0,56.30039,52,5573.399999976158,-4.30039,0,23,6,0,0,33.0,0.9417957862352193,602.4349294526681,-87.48153766164586,-6.0743893049189595,0.0009077317454224736
3,0,5,774,2,2,25.3549,18,2548.0,-7.354900000000001,0,24,6,0,0,33.0,0.9417957862352193,602.4349294526681,-87.48153766164586,-2.5451940840840983,0.0003666364301008243
3,0,4,918,1,0,13.04687,6,3441.6999999284744,-7.04687,0,25,6,0,0,33.0,0.9417957862352193,602.4349294526681,-87.48153766164586,0.38138851008042085,2.3397185856084053e-06
3,0,5,425,4,0,68.59844,84,5226.099999904633,15.401560000000003,0,26,6,0,0,33.0,0.9417957862352193,602.4349294526681,-87.48153766164586,11.01113711023224,0.003635916484259075
3,0,4,504,3,0,56.30039,49,3731.6999999284735,-7.30039,0,27,6,0,0,33.0,0.9417957862352193,602.4349294526681,-87.48153766164586,-9.07438930491896,0.001959509064241213
3,0,2,329,5,1,87.0672,82,2479.4000000953674,-5.0672,0,28,6,0,0,33.0,0.9417957862352193,602.4349294526681,-87.48153766164586,-13.38688504001287,0.011504682992274
3,0,4,774,2,1,25.3549,8,4330.5,-17.3549,0,29,6,0,0,33.0,0.9417957862352193,602.4349294526681,-87.48153766164586,-12.545194084084098,0.006723200492414319
3,0,2,504,3,0,56.30039,49,5192.5,-7.30039,0,30,6,0,0,33.0,0.9417957862352193,602.4349294526681,-87.48153766164586,-9.07438930491896,0.001959509064241213
3,0,5,329,5,2,87.0672,100,1915.6000000238416,12.9328,1,31,6,0,0,33.0,0.9417957862352193,602.4349294526681,-87.48153766164586,4.613114959987129,0.0012601504805161178
3,0,3,710,2,2,31.58063,16,3930.600000023842,-15.58063,1,32,6,0,0,33.0,0.9417957862352193,602.4349294526681,-87.48153766164586,-12.095454717835405,0.004942352379680963
3,0,0,550,3,2,50.0,50,8163.700000047684,0.0,1,33,6,0,0,33.0,0.9417957862352193,602.4349294526681,-87.48153766164586,-0.43357595408757277,1.3121318636329107e-05
3,0,1,390,4,0,74.79787,87,1970.3000000715256,12.202129999999997,1,34,6,0,0,33.0,0.9417957862352193,602.4349294526681,-87.48153766164586,6.492761200886775,0.001560231888662582
3,0,4,1000,1,2,6.87518,0,1932.2999999523165,-6.87518,1,35,6,0,0,33.0,0.9417957862352193,602.4349294526681,-87.48153766164586,1.8661241430406583,0.00012380673760133896
3,0,2,774,2,0,25.3549,15,3676.399999976158,-10.3549,1,36,6,0,0,33.0,0.9417957862352193,602.4349294526681,-87.48153766164586,-5.545194084084098,0.0014441492884724534
3,0,4,550,3,1,50.0,53,2781.099999904633,3.0,1,37,6,0,0,33.0,0.9417957862352193,602.4349294526681,-87.48153766164586,2.5664240459124272,0.00010282684876241966
3,0,2,843,1,0,19.19495,13,2091.2999999523163,-6.194949999999999,1,38,6,0,0,33.0,0.9417957862352193,602.4349294526681,-87.48153766164586,-0.07470079096509075,1.876216619919124e-05
3,0,1,774,2,2,25.3549,2,2005.1000000238416,-23.3549,1,39,6,0,0,33.0,0.9417957862352193,602.4349294526681,-87.48153766164586,-18.5451940840841,0.01432893943413348
3,0,3,1000,1,2,6.87518,0,2381.399999976158,-6.87518,1,40,6,0,0,33.0,0.9417957862352193,602.4349294526681,-87.48153766164586,1.8661241430406583,0.00012380673760133896
3,0,0,710,2,2,31.58063,47,4684.5,15.41937,1,41,6,0,0,33.0,0.9417957862352193,602.4349294526681,-87.48153766164586,18.904545282164595,0.010652494255178176
3,0,1,1000,1,2,6.87518,0,2365.399999976158,-6.87518,1,42,6,0,0,33.0,0.9417957862352193,602.4349294526681,-87.48153766164586,1.8661241430406583,0.00012380673760133896
3,0,4,463,4,1,62.42097,77,2523.9000000953674,14.579030000000003,1,43,6,0,0,33.0,0.9417957862352193,602.4349294526681,-87.48153766164586,11.502870986279433,0.0032256661812176666
3,0,0,1000,1,0,6.87518,9,3623.799999952316,2.1248199999999997,1,44,6,0,0,33.0,0.9417957862352193,602.4349294526681,-87.48153766164586,10.866124143040658,0.008260637629989286
3,0,2,550,3,1,50.0,84,3866.899999976158,34.0,1,45,6,0,0,33.0,0.9417957862352193,602.4349294526681,-87.48153766164586,33.56642404591243,0.023212002436413606
3,0,0,390,4,0,74.79787,100,2731.5,25.202129999999997,1,46,6,0,0,33.0,0.9417957862352193,602.4349294526681,-87.48153766164586,19.492761200886775,0.014695762231003278
3,0,5,843,1,2,19.19495,6,3752.700000047684,-13.194949999999999,1,47,6,0,0,33.0,0.9417957862352193,602.4349294526681,-87.48153766164586,-7.074700790965091,0.002897498766003368
3,0,0,329,5,2,87.0672,100,2289.0,12.9328,1,48,6,0,0,33.0,0.9417957862352193,602.4349294526681,-87.48153766164586,4.613114959987129,0.0012601504805161178
3,0,1,504,3,2,56.30039,50,6356.399999976158,-6.30039,1,49,6,0,0,33.0,0.9417957862352193,602.4349294526681,-87.48153766164586,-8.07438930491896,0.0015644997067697942
3,0,2,302,5,0,93.24415,100,2473.599999904633,6.755849999999995,1,50,6,0,0,33.0,0.9417957862352193,602.4349294526681,-87.48153766164586,-2.8779932681084404,0.0006964557860627182
3,0,5,599,3,1,43.84378,48,3385.899999976158,4.156219999999998,1,51,6,0,0,33.0,0.9417957862352193,602.4349294526681,-87.48153766164586,5.032388898946017,0.00047808577475980265
3,0,4,329,5,2,87.0672,100,2068.3000000715256,12.9328,1,52,6,0,0,33.0,0.9417957862352193,602.4349294526681,-87.48153766164586,4.613114959987129,0.0012601504805161178
3,0,5,652,2,0,37.72798,48,8285.0,10.272019999999998,1,53,6,0,0,33.0,0.9417957862352193,602.4349294526681,-87.48153766164586,12.449332940661805,0.003701179465137561
3,0,1,358,5,1,80.9736,79,1689.899999976158,-1.9736000000000047,1,54,6,0,0,33.0,0.9417957862352193,602.4349294526681,-87.48153766164586,-8.996861532304479,0.004209443327440716
3,0,3,463,4,0,62.42097,52,3940.8000000715256,-10.420969999999997,1,55,6,0,0,33.0,0.9417957862352193,602.4349294526681,-87.48153766164586,-13.497129013720567,0.004865278539008174
3,0,4,710,2,2,31.58063,22,2617.6999999284744,-9.58063,1,56,6,0,0,33.0,0.9417957862352193,602.4349294526681,-87.48153766164586,-6.0954547178354055,0.0013482663072080184
3,0,3,302,5,0,93.24415,100,2194.700000047684,6.755849999999995,1,57,6,0,0,33.0,0.9417957862352193,602.4349294526681,-87.48153766164586,-2.8779932681084404,0.0006964557860627182
3,0,2,390,4,1,74.79787,50,7745.400000095367,-24.797870000000003,1,58,6,0,0,33.0,0.9417957862352193,602.4349294526681,-87.48153766164586,-30.507238799113225,0.0372898792893335
3,0,3,599,3,0,43.84378,48,2038.700000047684,4.156219999999998,1,59,6,0,0,33.0,0.9417957862352193,602.4349294526681,-87.48153766164586,5.032388898946017,0.00047808577475980265
3,0,5,463,4,1,62.42097,55,2549.899999976158,-7.420969999999997,1,60,6,0,0,33.0,0.9417957862352193,602.4349294526681,-87.48153766164586,-10.497129013720567,0.0029774449712877864
3,0,1,425,4,1,68.59844,55,2230.099999904633,-13.598439999999997,2,61,6,0,0,33.0,0.9417957862352193,602.4349294526681,-87.48153766164586,-17.98886288976776,0.010432998643416194
3,0,5,1000,1,0,6.87518,4,3208.7999999523163,-2.8751800000000003,2,62,6,0,0,33.0,0.9417957862352193,602.4349294526681,-87.48153766164586,5.8661241430406585,0.002169349009478403
3,0,4,390,4,0,74.79787,78,2929.100000023842,3.202129999999997,2,63,6,0,0,33.0,0.9417957862352193,602.4349294526681,-87.48153766164586,-2.5072387991132246,0.00029172575549594093
3,0,0,599,3,1,43.84378,48,6500.599999904633,4.156219999999998,2,64,6,0,0,33.0,0.9417957862352193,602.4349294526681,-87.48153766164586,5.032388898946017,0.00047808577475980265
3,0,2,463,4,2,62.42097,46,9607.799999952316,-16.420969999999997,2,65,6,0,0,33.0,0.9417957862352193,602.4349294526681,-87.48153766164586,-19.497129013720567,0.010024556652909833
3,0,4,652,2,0,37.72798,39,2240.399999976158,1.2720199999999977,2,66,6,0,0,33.0,0.9417957862352193,602.4349294526681,-87.48153766164586,3.4493329406618045,0.00023373888979496608
3,0,0,425,4,1,68.59844,73,1514.3000000715256,4.4015600000000035,2,67,6,0,0,33.0,0.9417957862352193,602.4349294526681,-87.48153766164586,0.011137110232240843,1.7340768908218378e-06
3,0,1,710,2,1,31.58063,36,3117.899999976158,4.419370000000001,2,68,6,0,0,33.0,0.9417957862352193,602.4349294526681,-87.48153766164586,7.9045452821645945,0.0017340451402336138
3,0,3,550,3,2,50.0,62,1363.399999976158,12.0,2,69,6,0,0,33.0,0.9417957862352193,602.4349294526681,-87.48153766164586,11.566424045912427,0.0026448842283680264
3,0,0,358,5,0,80.9736,99,2293.899999976158,18.026399999999995,2,70,6,0,0,33.0,0.9417957862352193,602.4349294526681,-87.48153766164586,11.003138467695521,0.005871334145415624
3,0,1,550,3,1,50.0,48,2189.2999999523163,-2.0,2,71,6,0,0,33.0,0.9417957862352193,602.4349294526681,-87.48153766164586,-2.4335759540875728,0.00016377511236961457
3,0,0,774,2,1,25.3549,14,1659.600000023842,-11.3549,2,72,6,0,0,33.0,0.9417957862352193,602.4349294526681,-87.48153766164586,-6.545194084084098,0.001961311928943457
3,0,2,599,3,2,43.84378,47,1436.0,3.1562199999999976,2,73,6,0,0,33.0,0.9417957862352193,602.4349294526681,-87.48153766164586,4.032388898946017,0.00029422110700256035
3,0,4,358,5,0,80.9736,90,3027.2999999523163,9.026399999999995,2,74,6,0,0,33.0,0.9417957862352193,602.4349294526681,-87.48153766164586,2.0031384676955213,0.00016763638332725677
3,0,3,390,4,1,74.79787,73,1853.0,-1.7978700000000032,2,75,6,0,0,33.0,0.9417957862352193,602.4349294526681,-87.48153766164586,-7.507238799113225,0.002353528305637627
3,0,0,843,1,1,19.19495,10,2517.6999999284744,-9.194949999999999,2,76,6,0,0,33.0,0.9417957862352193,602.4349294526681,-87.48153766164586,-3.0747007909650907,0.0006525206449614758
3,0,5,390,4,2,74.79787,87,1325.5,12.202129999999997,2,77,6,0,0,33.0,0.9417957862352193,602.4349294526681,-87.48153766164586,6.492761200886775,0.001560231888662582
3,0,2,710,2,2,31.58063,33,3807.799999952316,1.4193700000000007,2,78,6,0,0,33.0,0.9417957862352193,602.4349294526681,-87.48153766164586,4.9045452821645945,0.0006175377864771949
3,0,5,358,5,0,80.9736,93,1844.0,12.026399999999995,2,79,6,0,0,33.0,0.9417957862352193,602.4349294526681,-87.48153766164586,5.003138467695521,0.001167805899053744
3,0,1,843,1,1,19.19495,18,2568.8000000715256,-1.1949499999999986,2,80,6,0,0,33.0,0.9417957862352193,602.4349294526681,-87.48153766164586,4.925299209034909,0.0009624506292508779
3,0,5,550,3,0,50.0,50,5929.699999928474,0.0,2,81,6,0,0,33.0,0.9417957862352193,602.4349294526681,-87.48153766164586,-0.43357595408757277,1.3121318636329107e-05
3,0,1,329,5,2,87.0672,86,1338.7999999523165,-1.0671999999999997,2,82,6,0,0,33.0,0.9417957862352193,602.4349294526681,-87.48153766164586,-9.38688504001287,0.005705653731983554
3,0,3,843,1,0,19.19495,0,1465.600000023842,-19.19495,2,83,6,0,0,33.0,0.9417957862352193,602.4349294526681,-87.48153766164586,-13.07470079096509,0.00926489483904945
3,0,5,710,2,1,31.58063,44,2598.600000023842,12.41937,2,84,6,0,0,33.0,0.9417957862352193,602.4349294526681,-87.48153766164586,15.904545282164595,0.007468305979491314
3,0,3,358,5,2,80.9736,92,1523.7999999523165,11.026399999999995,2,85,6,0,0,33.0,0.9417957862352193,602.4349294526681,-87.48153766164586,4.003138467695521,0.0007342979414075481
3,0,4,843,1,1,19.19495,7,1888.2999999523165,-12.194949999999999,2,86,6,0,0,33.0,0.9417957862352193,602.4349294526681,-87.48153766164586,-6.074700790965091,0.002186257791168733
3,0,3,652,2,1,37.72798,42,5113.799999952316,4.272019999999998,2,87,6,0,0,33.0,0.9417957862352193,602.4349294526681,-87.48153766164586,6.4493329406618045,0.0009285095227541762
3,0,2,918,1,1,13.04687,3,1530.8000000715256,-10.04687,2,88,6,0,0,33.0,0.9417957862352193,602.4349294526681,-87.48153766164586,-2.618611489919579,0.0006417449387626908
3,0,4,599,3,2,43.84378,63,4493.199999928474,19.156219999999998,2,89,6,0,0,33.0,0.9417957862352193,602.4349294526681,-87.48153766164586,20.032388898946017,0.008565436479530307
3,0,2,358,5,2,80.9736,89,1983.3000000715256,8.026399999999995,2,90,6,0,0,33.0,0.9417957862352193,602.4349294526681,-87.48153766164586,1.0031384676955213,3.448278289316134e-05
3,0,0,329,5,0,87.0672,99,3181.100000023842,11.9328,3,91,6,0,0,33.0,0.9417957862352193,602.4349294526681,-87.48153766164586,3.6131149599871293,0.0007599709942156229
3,0,2,710,2,1,31.58063,25,2180.6999999284744,-6.580629999999999,3,92,6,0,0,33.0,0.9417957862352193,602.4349294526681,-87.48153766164586,-3.0954547178354055,0.00039709273903399767
3,0,3,329,5,1,87.0672,89,2281.399999976158,1.9328000000000003,3,93,6,0,0,33.0,0.9417957862352193,602.4349294526681,-87.48153766164586,-6.386885040012871,0.002677306716728147
3,0,0,918,1,1,13.04687,15,2733.600000023842,1.9531299999999998,3,94,6,0,0,33.0,0.9417957862352193,602.4349294526681,-87.48153766164586,9.38138851008042,0.004883158508346461
3,0,5,652,2,0,37.72798,33,5407.5,-4.727980000000002,3,95,6,0,0,33.0,0.9417957862352193,602.4349294526681,-87.48153766164586,-2.5506670593381955,0.0002273263003415107
3,0,1,329,5,2,87.0672,92,2520.899999976158,4.9328,3,96,6,0,0,33.0,0.9417957862352193,602.4349294526681,-87.48153766164586,-3.3868850400128707,0.0007811810700119626
3,0,5,390,4,0,74.79787,89,2124.8000000715256,14.202129999999997,3,97,6,0,0,33.0,0.9417957862352193,602.4349294526681,-87.48153766164586,8.492761200886775,0.002711602425519271
3,0,0,774,2,1,25.3549,9,2140.6999999284744,-16.3549,3,98,6,0,0,33.0,0.9417957862352193,602.4349294526681,-87.48153766164586,-11.545194084084098,0.005732062788901934
3,0,1,463,4,2,62.42097,49,14730.5,-13.420969999999997,3,99,6,0,0,33.0,0.9417957862352193,602.4349294526681,-87.48153766164586,-16.497129013720567,0.007214315766215521
3,0,4,504,3,1,56.30039,50,9288.200000047684,-6.30039,3,100,6,0,0,33.0,0.9417957862352193,602.4349294526681,-87.48153766164586,-8.07438930491896,0.0015644997067697942
3,0,0,390,4,0,74.79787,85,2092.200000047684,10.202129999999997,3,101,6,0,0,33.0,0.9417957862352193,602.4349294526681,-87.48153766164586,4.492761200886775,0.0007250360009120313
3,0,2,918,1,0,13.04687,7,1911.0,-6.04687,3,102,6,0,0,33.0,0.9417957862352193,602.4349294526681,-87.48153766164586,1.3813885100804209,4.1020735944806923e-05
3,0,3,599,3,1,43.84378,39,8551.699999928474,-4.843780000000002,3,103,6,0,0,33.0,0.9417957862352193,602.4349294526681,-87.48153766164586,-3.9676111010539827,0.0004221179714681845
3,0,2,302,5,0,93.24415,100,1552.600000023842,6.755849999999995,3,104,6,0,0,33.0,0.9417957862352193,602.4349294526681,-87.48153766164586,-2.8779932681084404,0.0006964557860627182
3,0,1,1000,1,1,6.87518,0,7023.100000023842,-6.87518,3,105,6,0,0,33.0,0.9417957862352193,602.4349294526681,-87.48153766164586,1.8661241430406583,0.00012380673760133896
3,0,4,329,5,2,87.0672,94,2445.8000000715256,6.9328,3,106,6,0,0,33.0,0.9417957862352193,602.4349294526681,-87.48153766164586,-1.3868850400128707,0.00014610917694518602
3,0,3,843,1,1,19.19495,28,1359.899999976158,8.805050000000001,3,107,6,0,0,33.0,0.9417957862352193,602.4349294526681,-87.48153766164586,14.92529920903491,0.01034964978406236
3,0,5,504,3,2,56.30039,55,8910.0,-1.3003900000000002,3,108,6,0,0,33.0,0.9417957862352193,602.4349294526681,-87.48153766164586,-3.0743893049189595,0.0002557066873902875
3,0,4,1000,1,2,6.87518,11,1871.1000000238416,4.12482,3,109,6,0,0,33.0,0.9417957862352193,602.4349294526681,-87.48153766164586,12.866124143040658,0.011796731987733724
3,0,5,329,5,2,87.0672,98,1583.2999999523165,10.9328,3,110,6,0,0,33.0,0.9417957862352193,602.4349294526681,-87.48153766164586,2.6131149599871293,0.0003855938821972637
3,0,1,710,2,2,31.58063,26,1494.100000023842,-5.580629999999999,3,111,6,0,0,33.0,0.9417957862352193,602.4349294526681,-87.48153766164586,-2.0954547178354055,0.00020534887824450235
3,0,5,918,1,0,13.04687,14,3135.599999904633,0.9531299999999998,3,112,6,0,0,33.0,0.9417957862352193,602.4349294526681,-87.48153766164586,8.38138851008042,0.0038372131279810267
3,0,4,390,4,2,74.79787,79,3430.700000047684,4.202129999999997,3,113,6,0,0,33.0,0.9417957862352193,602.4349294526681,-87.48153766164586,-1.5072387991132246,0.00011649623229720741
3,0,1,504,3,0,56.30039,52,3640.299999952316,-4.30039,3,114,6,0,0,33.0,0.9417957862352193,602.4349294526681,-87.48153766164586,-6.0743893049189595,0.0009077317454224736
3,0,3,390,4,0,74.79787,90,1892.0,15.202129999999997,3,115,6,0,0,33.0,0.9417957862352193,602.4349294526681,-87.48153766164586,9.492761200886775,0.003405853187362418
3,0,0,504,3,1,56.30039,52,1985.200000047684,-4.30039,3,116,6,0,0,33.0,0.9417957862352193,602.4349294526681,-87.48153766164586,-6.0743893049189595,0.0009077317454224736
3,0,2,390,4,2,74.79787,72,1239.9000000953674,-2.797870000000003,3,117,6,0,0,33.0,0.9417957862352193,602.4349294526681,-87.48153766164586,-8.507238799113225,0.003003019802495567
3,0,4,652,2,1,37.72798,29,3341.7999999523163,-8.727980000000002,3,118,6,0,0,33.0,0.9417957862352193,602.4349294526681,-87.48153766164586,-6.5506670593381955,0.0012475910010502924
3,0,2,550,3,0,50.0,48,2791.399999976158,-2.0,3,119,6,0,0,33.0,0.9417957862352193,602.4349294526681,-87.48153766164586,-2.4335759540875728,0.00016377511236961457
3,0,3,774,2,1,25.3549,26,2412.399999976158,0.6450999999999993,3,120,6,0,0,33.0,0.9417957862352193,602.4349294526681,-87.48153766164586,5.454805915915902,0.0009690859367466201
3,0,5,358,5,1,80.9736,95,1412.0,14.026399999999995,4,121,6,0,0,33.0,0.9417957862352193,602.4349294526681,-87.48153766164586,7.003138467695521,0.0023351761715582372
3,0,1,652,2,1,37.72798,11,1862.5,-26.727980000000002,4,122,6,0,0,33.0,0.9417957862352193,602.4349294526681,-87.48153766164586,-24.550667059338195,0.015981725781649556
3,0,2,329,5,1,87.0672,100,2166.600000023842,12.9328,4,123,6,0,0,33.0,0.9417957862352193,602.4349294526681,-87.48153766164586,4.613114959987129,0.0012601504805161178
3,0,1,550,3,1,50.0,45,2207.700000047684,-5.0,4,124,6,0,0,33.0,0.9417957862352193,602.4349294526681,-87.48153766164586,-5.433575954087573,0.0007054420236955615
3,0,5,425,4,2,68.59844,53,3058.600000023842,-15.598439999999997,4,125,6,0,0,33.0,0.9417957862352193,602.4349294526681,-87.48153766164586,-19.98886288976776,0.012847055511409838
3,0,4,550,3,0,50.0,38,2246.099999904633,-12.0,4,126,6,0,0,33.0,0.9417957862352193,602.4349294526681,-87.48153766164586,-12.433575954087573,0.0034425338468441922
3,0,2,843,1,1,19.19495,11,6897.699999928474,-8.194949999999999,4,127,6,0,0,33.0,0.9417957862352193,602.4349294526681,-87.48153766164586,-2.0747007909650907,0.000341270188991273
3,0,5,550,3,1,50.0,64,3046.599999904633,14.0,4,128,6,0,0,33.0,0.9417957862352193,602.4349294526681,-87.48153766164586,13.566424045912427,0.0036727923253452107
3,0,4,774,2,2,25.3549,35,1755.7000000476835,9.6451,4,129,6,0,0,33.0,0.9417957862352193,602.4349294526681,-87.48153766164586,14.454805915915902,0.007690023685500769
3,0,3,504,3,2,56.30039,85,1378.5999999046326,28.69961,4,130,6,0,0,33.0,0.9417957862352193,602.4349294526681,-87.48153766164586,26.92561069508104,0.015721830450328857
3,0,4,302,5,0,93.24415,100,2039.0,6.755849999999995,4,131,6,0,0,33.0,0.9417957862352193,602.4349294526681,-87.48153766164586,-2.8779932681084404,0.0006964557860627182
3,0,0,599,3,0,43.84378,37,3781.0,-6.843780000000002,4,132,6,0,0,33.0,0.9417957862352193,602.4349294526681,-87.48153766164586,-5.967611101053983,0.0008982072449522465
3,0,3,652,2,0,37.72798,45,5240.699999928474,7.272019999999998,4,133,6,0,0,33.0,0.9417957862352193,602.4349294526681,-87.48153766164586,9.449332940661805,0.0020843230478683754
3,0,0,1000,1,0,6.87518,0,2985.5,-6.87518,4,134,6,0,0,33.0,0.9417957862352193,602.4349294526681,-87.48153766164586,1.8661241430406583,0.00012380673760133896
3,0,2,774,2,2,25.3549,29,2152.4000000953674,3.6450999999999993,4,135,6,0,0,33.0,0.9417957862352193,602.4349294526681,-87.48153766164586,8.454805915915902,0.0024984359251025955
3,0,5,843,1,2,19.19495,19,2833.5,-0.19494999999999862,4,136,6,0,0,33.0,0.9417957862352193,602.4349294526681,-87.48153766164586,5.925299209034909,0.0014511812110095399
3,0,1,425,4,0,68.59844,83,2548.100000023842,14.401560000000003,4,137,6,0,0,33.0,0.9417957862352193,602.4349294526681,-87.48153766164586,10.01113711023224,0.0029917793974791546
3,0,4,843,1,0,19.19495,2,1915.8000000715256,-17.19495,4,138,6,0,0,33.0,0.9417957862352193,602.4349294526681,-87.48153766164586,-11.07470079096509,0.006742438962502991
3,0,1,358,5,1,80.9736,95,1450.6999999284744,14.026399999999995,4,139,6,0,0,33.0,0.9417957862352193,602.4349294526681,-87.48153766164586,7.003138467695521,0.0023351761715582372
3,0,0,425,4,2,68.59844,92,3232.7999999523163,23.401560000000003,4,140,6,0,0,33.0,0.9417957862352193,602.4349294526681,-87.48153766164586,19.01113711023224,0.011048062627581925
3,0,1,918,1,2,13.04687,10,1338.7000000476835,-3.04687,4,141,6,0,0,33.0,0.9417957862352193,602.4349294526681,-87.48153766164586,4.381388510080421,0.0009125120602770802
3,0,4,463,4,1,62.42097,84,1558.5,21.579030000000003,4,142,6,0,0,33.0,0.9417957862352193,602.4349294526681,-87.48153766164586,18.502870986279433,0.008505998039096291
3,0,0,710,2,2,31.58063,25,11178.0,-6.580629999999999,4,143,6,0,0,33.0,0.9417957862352193,602.4349294526681,-87.48153766164586,-3.0954547178354055,0.00039709273903399767
3,0,3,463,4,2,62.42097,87,2062.0,24.579030000000003,4,144,6,0,0,33.0,0.9417957862352193,602.4349294526681,-87.48153766164586,21.502870986279433,0.011537670172570165
3,0,2,504,3,2,56.30039,53,1947.1999999284744,-3.30039,4,145,6,0,0,33.0,0.9417957862352193,602.4349294526681,-87.48153766164586,-5.0743893049189595,0.0006459731415465723
3,0,3,918,1,2,13.04687,7,2085.6999999284744,-6.04687,4,146,6,0,0,33.0,0.9417957862352193,602.4349294526681,-87.48153766164586,1.3813885100804209,4.1020735944806923e-05
3,0,2,463,4,1,62.42097,82,1945.5999999046328,19.579030000000003,4,147,6,0,0,33.0,0.9417957862352193,602.4349294526681,-87.48153766164586,16.502870986279433,0.006741107538717581
3,0,3,358,5,0,80.9736,100,2115.0,19.026399999999995,4,148,6,0,0,33.0,0.9417957862352193,602.4349294526681,-87.48153766164586,12.003138467695521,0.007005668936556722
3,0,5,774,2,2,25.3549,4,1902.3000000715256,-21.3549,4,149,6,0,0,33.0,0.9417957862352193,602.4349294526681,-87.48153766164586,-16.5451940840841,0.011477709744866168
3,0,0,358,5,1,80.9736,100,2325.0,19.026399999999995,4,150,6,0,0,33.0,0.9417957862352193,602.4349294526681,-87.48153766164586,12.003138467695521,0.007005668936556722
3,0,2,599,3,1,43.84378,24,1293.0,-19.843780000000002,5,151,6,0,0,33.0,0.9417957862352193,602.4349294526681,-87.48153766164586,-18.967611101053983,0.008322909331933293
3,0,0,843,1,2,19.19495,2,1429.899999976158,-17.19495,5,152,6,0,0,33.0,0.9417957862352193,602.4349294526681,-87.48153766164586,-11.07470079096509,0.006742438962502991
3,0,5,463,4,1,62.42097,96,1751.0,33.57903,5,153,6,0,0,33.0,0.9417957862352193,602.4349294526681,-87.48153766164586,30.502870986279433,0.023399908529913548
3,0,0,550,3,2,50.0,48,3586.5,-2.0,5,154,6,0,0,33.0,0.9417957862352193,602.4349294526681,-87.48153766164586,-2.4335759540875728,0.00016377511236961457
3,0,5,302,5,0,93.24415,100,3140.8000000715256,6.755849999999995,5,155,6,0,0,33.0,0.9417957862352193,602.4349294526681,-87.48153766164586,-2.8779932681084404,0.0006964557860627182
3,0,4,599,3,2,43.84378,47,2696.700000047684,3.1562199999999976,5,156,6,0,0,33.0,0.9417957862352193,602.4349294526681,-87.48153766164586,4.032388898946017,0.00029422110700256035
3,0,1,774,2,0,25.3549,13,1756.6999999284744,-12.3549,5,157,6,0,0,33.0,0.9417957862352193,602.4349294526681,-87.48153766164586,-7.545194084084098,0.0025574704132546905
3,0,5,599,3,0,43.84378,48,6742.100000023842,4.156219999999998,5,158,6,0,0,33.0,0.9417957862352193,602.4349294526681,-87.48153766164586,5.032388898946017,0.00047808577475980265
3,0,4,918,1,1,13.04687,0,2276.100000023842,-13.04687,5,159,6,0,0,33.0,0.9417957862352193,602.4349294526681,-87.48153766164586,-5.618611489919579,0.0024143225673217894
3,0,3,550,3,0,50.0,81,2252.0,31.0,5,160,6,0,0,33.0,0.9417957862352193,602.4349294526681,-87.48153766164586,30.566424045912427,0.019207787769284883
3,0,0,302,5,2,93.24415,100,1852.5,6.755849999999995,5,161,6,0,0,33.0,0.9417957862352193,602.4349294526681,-87.48153766164586,-2.8779932681084404,0.0006964557860627182
3,0,5,1000,1,1,6.87518,0,2937.899999976158,-6.87518,5,162,6,0,0,33.0,0.9417957862352193,602.4349294526681,-87.48153766164586,1.8661241430406583,0.00012380673760133896
3,0,1,390,4,1,74.79787,92,1452.0,17.202129999999997,5,163,6,0,0,33.0,0.9417957862352193,602.4349294526681,-87.48153766164586,11.492761200886775,0.005031485697878314
3,0,2,358,5,2,80.9736,99,2331.700000047684,18.026399999999995,5,164,6,0,0,33.0,0.9417957862352193,602.4349294526681,-87.48153766164586,11.003138467695521,0.005871334145415624
3,0,1,599,3,2,43.84378,38,4259.0,-5.843780000000002,5,165,6,0,0,33.0,0.9417957862352193,602.4349294526681,-87.48153766164586,-4.967611101053983,0.0006379568553418328
3,0,4,425,4,0,68.59844,72,1793.600000023842,3.4015600000000035,5,166,6,0,0,33.0,0.9417957862352193,602.4349294526681,-87.48153766164586,-0.9888628897677592,4.786209955307607e-05
3,0,3,710,2,2,31.58063,8,2263.5,-23.58063,5,167,6,0,0,33.0,0.9417957862352193,602.4349294526681,-87.48153766164586,-20.095454717835405,0.013243259010496547
3,0,0,463,4,1,62.42097,82,3557.6999999284744,19.579030000000003,5,168,6,0,0,33.0,0.9417957862352193,602.4349294526681,-87.48153766164586,16.502870986279433,0.006741107538717581
3,0,4,358,5,1,80.9736,97,1488.7999999523165,16.026399999999995,5,169,6,0,0,33.0,0.9417957862352193,602.4349294526681,-87.48153766164586,9.003138467695521,0.0039030189203455292
3,0,2,425,4,0,68.59844,54,2023.6000000238416,-14.598439999999997,5,170,6,0,0,33.0,0.9417957862352193,602.4349294526681,-87.48153766164586,-18.98886288976776,0.01160865139062019
3,0,5,710,2,1,31.58063,7,2379.5,-24.58063,5,171,6,0,0,33.0,0.9417957862352193,602.4349294526681,-87.48153766164586,-21.095454717835405,0.01456282882870265
3,0,3,1000,1,0,6.87518,3,3914.099999904633,-3.8751800000000003,5,172,6,0,0,33.0,0.9417957862352193,602.4349294526681,-87.48153766164586,4.8661241430406585,0.0014223393894648338
3,0,4,710,2,0,31.58063,44,8921.0,12.41937,5,173,6,0,0,33.0,0.9417957862352193,602.4349294526681,-87.48153766164586,15.904545282164595,0.007468305979491314
3,0,1,843,1,0,19.19495,29,1420.5,9.805050000000001,5,174,6,0,0,33.0,0.9417957862352193,602.4349294526681,-87.48153766164586,15.92529920903491,0.0118383566629821
3,0,3,302,5,2,93.24415,99,1660.1999999284744,5.755849999999995,5,175,6,0,0,33.0,0.9417957862352193,602.4349294526681,-87.48153766164586,-3.8779932681084404,0.001242568401195917
3,0,2,1000,1,2,6.87518,8,5495.600000023842,1.1248199999999997,5,176,6,0,0,33.0,0.9417957862352193,602.4349294526681,-87.48153766164586,9.866124143040658,0.0067282145031613725
3,0,0,652,2,0,37.72798,66,1660.399999976158,28.272019999999998,5,177,6,0,0,33.0,0.9417957862352193,602.4349294526681,-87.48153766164586,30.449332940661805,0.023084218704007432
3,0,3,425,4,1,68.59844,99,2011.399999976158,30.401560000000003,5,178,6,0,0,33.0,0.9417957862352193,602.4349294526681,-87.48153766164586,26.01113711023224,0.02082813761623615
3,0,2,652,2,0,37.72798,48,3607.0,10.272019999999998,5,179,6,0,0,33.0,0.9417957862352193,602.4349294526681,-87.48153766164586,12.449332940661805,0.003701179465137561
3,0,1,302,5,0,93.24415,100,1653.8000000715256,6.755849999999995,5,180,6,0,0,33.0,0.9417957862352193,602.4349294526681,-87.48153766164586,-2.8779932681084404,0.0006964557860627182
6,1,2,652,2,2,37.72798,49,4834.5,11.272019999999998,0,1,6,0,0,31.0,0.9399546257926663,486.4799934602387,-68.85188186963202,8.683269227486633,0.002776965922383697
6,1,5,599,3,2,43.84378,48,4639.60000000149,4.156219999999998,0,2,6,0,0,31.0,0.9399546257926663,486.4799934602387,-68.85188186963202,1.845802618600331,7.82377588227335e-05
6,1,4,302,5,1,93.24415,100,2580.20000000298,6.755849999999995,0,3,6,0,0,31.0,0.9399546257926663,486.4799934602387,-68.85188186963202,6.693652965210973,0.007524473197152793
6,1,3,463,4,2,62.42097,74,1798.60000000149,11.579030000000003,0,4,6,0,0,31.0,0.9399546257926663,486.4799934602387,-68.85188186963202,10.114064615751268,0.004396087506854707
6,1,5,329,5,2,87.0672,100,2274.6999999955297,12.9328,0,5,6,0,0,31.0,0.9399546257926663,486.4799934602387,-68.85188186963202,12.589490105023785,0.018434869065980537
6,1,0,843,1,0,19.19495,28,1322.5,8.805050000000001,0,6,6,0,0,31.0,0.9399546257926663,486.4799934602387,-68.85188186963202,5.372859691719267,0.0015318298359335704
6,1,4,550,3,2,50.0,50,8369.5,0.0,0,7,6,0,0,31.0,0.9399546257926663,486.4799934602387,-68.85188186963202,-2.0302455607547003,0.00017314765006945707
6,1,5,918,1,2,13.04687,0,3257.5,-13.04687,0,8,6,0,0,31.0,0.9399546257926663,486.4799934602387,-68.85188186963202,-16.758864629924823,0.03327790887842436
6,1,1,358,5,1,80.9736,97,2715.70000000298,16.026399999999995,0,9,6,0,0,31.0,0.9399546257926663,486.4799934602387,-68.85188186963202,15.405769049896747,0.021060373204593818
6,1,3,843,1,0,19.19495,29,4040.0,9.805050000000001,0,10,6,0,0,31.0,0.9399546257926663,486.4799934602387,-68.85188186963202,6.372859691719267,0.002321758347683361
6,1,2,425,4,2,68.59844,73,1226.39999999851,4.4015600000000035,0,11,6,0,0,31.0,0.9399546257926663,486.4799934602387,-68.85188186963202,3.217735063024733,0.0006325440875355285
6,1,3,302,5,0,93.24415,100,2155.60000000149,6.755849999999995,0,12,6,0,0,31.0,0.9399546257926663,486.4799934602387,-68.85188186963202,6.693652965210973,0.007524473197152793
6,1,2,1000,1,0,6.87518,23,1902.29999999702,16.12482,0,13,6,0,0,31.0,0.9399546257926663,486.4799934602387,-68.85188186963202,12.1319569925664,0.01486046079936028
6,1,3,710,2,2,31.58063,38,1461.8000000044703,6.419370000000001,0,14,6,0,0,31.0,0.9399546257926663,486.4799934602387,-68.85188186963202,3.550854699469241,0.00041358318065191853
6,1,4,843,1,0,19.19495,35,19933.29999999702,15.805050000000001,0,15,6,0,0,31.0,0.9399546257926663,486.4799934602387,-68.85188186963202,12.372859691719267,0.010498217036427573
6,1,0,774,2,1,25.3549,43,51669.0,17.6451,0,16,6,0,0,31.0,0.9399546257926663,486.4799934602387,-68.85188186963202,14.493247427528171,0.011980986729139574
6,1,2,599,3,2,43.84378,50,4990.89999999851,6.156219999999998,0,17,6,0,0,31.0,0.9399546257926663,486.4799934602387,-68.85188186963202,3.845802618600331,0.0004369043439641993
6,1,0,302,5,1,93.24415,100,1864.8000000044703,6.755849999999995,0,18,6,0,0,31.0,0.9399546257926663,486.4799934602387,-68.85188186963202,6.693652965210973,0.007524473197152793
6,1,3,599,3,1,43.84378,49,2301.8000000044703,5.156219999999998,0,19,6,0,0,31.0,0.9399546257926663,486.4799934602387,-68.85188186963202,2.845802618600331,0.00022122796277472732
6,1,0,425,4,1,68.59844,80,1389.4000000059605,11.401560000000003,0,20,6,0,0,31.0,0.9399546257926663,486.4799934602387,-68.85188186963202,10.217735063024733,0.005671926881950196
6,1,1,710,2,0,31.58063,37,1381.1999999955297,5.419370000000001,0,21,6,0,0,31.0,0.9399546257926663,486.4799934602387,-68.85188186963202,2.550854699469241,0.0001736114190443392
6,1,4,390,4,2,74.79787,73,1827.6999999955297,-1.7978700000000032,0,22,6,0,0,31.0,0.9399546257926663,486.4799934602387,-68.85188186963202,-2.699562961203924,0.00032445872303969936
6,1,0,599,3,2,43.84378,50,5215.20000000298,6.156219999999998,0,23,6,0,0,31.0,0.9399546257926663,486.4799934602387,-68.85188186963202,3.845802618600331,0.0004369043439641993
6,1,1,390,4,1,74.79787,80,1232.5,5.202129999999997,0,24,6,0,0,31.0,0.9399546257926663,486.4799934602387,-68.85188186963202,4.300437038796076,0.0014657788496959007
6,1,4,774,2,2,25.3549,48,3397.6999999955297,22.6451,0,25,6,0,0,31.0,0.9399546257926663,486.4799934602387,-68.85188186963202,19.49324742752817,0.022397681319788445
6,1,5,390,4,0,74.79787,63,2866.39999999851,-11.797870000000003,0,26,6,0,0,31.0,0.9399546257926663,486.4799934602387,-68.85188186963202,-12.699562961203924,0.009690193304598622
6,1,1,843,1,0,19.19495,34,1315.6999999955297,14.805050000000001,0,27,6,0,0,31.0,0.9399546257926663,486.4799934602387,-68.85188186963202,11.372859691719267,0.008726320633750508
6,1,5,774,2,0,25.3549,29,2566.20000000298,3.6450999999999993,0,28,6,0,0,31.0,0.9399546257926663,486.4799934602387,-68.85188186963202,0.4932474275281713,9.639168919886412e-06
6,1,2,358,5,2,80.9736,85,3744.60000000149,4.026399999999995,0,29,6,0,0,31.0,0.9399546257926663,486.4799934602387,-68.85188186963202,3.4057690498967474,0.0013325556839262791
6,1,1,504,3,0,56.30039,50,7463.5,-6.30039,0,30,6,0,0,31.0,0.9399546257926663,486.4799934602387,-68.85188186963202,-8.043907326213116,0.0023759731370994424
6,1,0,463,4,0,62.42097,70,1422.60000000149,7.579030000000003,1,31,6,0,0,31.0,0.9399546257926663,486.4799934602387,-68.85188186963202,6.114064615751268,0.001632168437553674
6,1,1,774,2,2,25.3549,32,2188.0,6.645099999999999,1,32,6,0,0,31.0,0.9399546257926663,486.4799934602387,-68.85188186963202,3.4932474275281713,0.00044166435780641474
6,1,5,1000,1,0,6.87518,0,12262.39999999851,-6.87518,1,33,6,0,0,31.0,0.9399546257926663,486.4799934602387,-68.85188186963202,-10.8680430074336,0.019283500329658573
6,1,3,550,3,0,50.0,50,4017.5,0.0,1,34,6,0,0,31.0,0.9399546257926663,486.4799934602387,-68.85188186963202,-2.0302455607547003,0.00017314765006945707
6,1,4,1000,1,2,6.87518,0,2129.0,-6.87518,1,35,6,0,0,31.0,0.9399546257926663,486.4799934602387,-68.85188186963202,-10.8680430074336,0.019283500329658573
6,1,0,504,3,1,56.30039,58,2801.0,1.6996099999999998,1,36,6,0,0,31.0,0.9399546257926663,486.4799934602387,-68.85188186963202,-0.043907326213115994,2.6299765725682217e-07
6,1,3,329,5,2,87.0672,100,1538.2999999970198,12.9328,1,37,6,0,0,31.0,0.9399546257926663,486.4799934602387,-68.85188186963202,12.589490105023785,0.018434869065980537
6,1,0,918,1,1,13.04687,0,2360.89999999851,-13.04687,1,38,6,0,0,31.0,0.9399546257926663,486.4799934602387,-68.85188186963202,-16.758864629924823,0.03327790887842436
6,1,2,504,3,1,56.30039,55,1716.1999999955297,-1.3003900000000002,1,39,6,0,0,31.0,0.9399546257926663,486.4799934602387,-68.85188186963202,-3.043907326213116,0.0003459415373883672
6,1,0,652,2,0,37.72798,27,3395.39999999851,-10.727980000000002,1,40,6,0,0,31.0,0.9399546257926663,486.4799934602387,-68.85188186963202,-13.316730772513367,0.008054013404009094
6,1,4,463,4,1,62.42097,57,1301.2999999970198,-5.420969999999997,1,41,6,0,0,31.0,0.9399546257926663,486.4799934602387,-68.85188186963202,-6.885935384248732,0.001917064820393409
6,1,0,329,5,0,87.0672,100,1493.1999999955297,12.9328,1,42,6,0,0,31.0,0.9399546257926663,486.4799934602387,-68.85188186963202,12.589490105023785,0.018434869065980537
6,1,4,710,2,0,31.58063,27,2120.89999999851,-4.580629999999999,1,43,6,0,0,31.0,0.9399546257926663,486.4799934602387,-68.85188186963202,-7.449145300530759,0.003414017139955173
6,1,5,302,5,1,93.24415,100,1546.10000000149,6.755849999999995,1,44,6,0,0,31.0,0.9399546257926663,486.4799934602387,-68.85188186963202,6.693652965210973,0.007524473197152793
6,1,3,652,2,1,37.72798,35,2525.29999999702,-2.7279800000000023,1,45,6,0,0,31.0,0.9399546257926663,486.4799934602387,-68.85188186963202,-5.316730772513367,0.0014400050713120854
6,1,4,358,5,2,80.9736,77,1394.39999999851,-3.9736000000000047,1,46,6,0,0,31.0,0.9399546257926663,486.4799934602387,-68.85188186963202,-4.5942309501032526,0.0012893584801003874
6,1,3,918,1,1,13.04687,32,1116.5,18.95313,1,47,6,0,0,31.0,0.9399546257926663,486.4799934602387,-68.85188186963202,15.241135370075177,0.020276482139526496
6,1,4,504,3,0,56.30039,49,3135.60000000149,-7.30039,1,48,6,0,0,31.0,0.9399546257926663,486.4799934602387,-68.85188186963202,-9.043907326213116,0.003000064562065542
6,1,1,425,4,0,68.59844,64,1195.6999999955297,-4.5984399999999965,1,49,6,0,0,31.0,0.9399546257926663,486.4799934602387,-68.85188186963202,-5.782264936975267,0.0015478929862512477
6,1,2,843,1,1,19.19495,31,1488.5,11.805050000000001,1,50,6,0,0,31.0,0.9399546257926663,486.4799934602387,-68.85188186963202,8.372859691719267,0.004392599316646578
6,1,3,390,4,0,74.79787,64,3284.0,-10.797870000000003,1,51,6,0,0,31.0,0.9399546257926663,486.4799934602387,-68.85188186963202,-11.699562961203924,0.008171468510276954
