subject,range,pitch,ioi,tempo,loudness,true_score,response,rt,error,block,trial,test_correct,test_incorrect,test_skipped,extreme_responses,pearsonr,intercept,slope,residual,illusory_tempo,cooks
1,0,4,918,65.359477124183,1,13.046873249910696,0,4321.299999952316,-13.046873249910696,0,1,6,0,0,81.0,0.9003488729557858,54.54263339394523,65.33949053508692,-6.252663883358679,-9.569502045628953,0.0025705043127452576
1,0,3,652,92.02453987730061,1,37.727982709047225,24,3346.100000023842,-13.727982709047225,0,2,6,0,0,81.0,0.9003488729557858,54.54263339394523,65.33949053508692,-14.505686241372587,-22.200488743607693,0.003251414787265769
1,0,2,1000,60.0,0,6.875176187496734,0,2802.6999999284744,-6.875176187496734,0,3,6,0,0,81.0,0.9003488729557858,54.54263339394523,65.33949053508692,1.812446952541734,2.7738920791989656,6.2081882973371e-05
1,0,1,652,92.02453987730061,1,37.727982709047225,43,3357.5,5.272017290952775,0,4,6,0,0,81.0,0.9003488729557858,54.54263339394523,65.33949053508692,4.494313758627413,6.87840343079197,0.00013405788023160582
1,0,2,504,119.04761904761905,0,56.30039424560527,55,3507.2999999523163,-1.3003942456052684,0,5,6,0,0,81.0,0.9003488729557858,54.54263339394523,65.33949053508692,-7.77592439750606,-11.900803532176967,0.0007228648170064004
1,0,1,1000,60.0,0,6.875176187496734,8,3862.3000000715256,1.1248238125032657,0,6,6,0,0,81.0,0.9003488729557858,54.54263339394523,65.33949053508692,9.812446952541734,15.017636152630404,0.0018232919551403957
1,0,2,652,92.02453987730061,0,37.727982709047225,44,2740.399999976158,6.272017290952775,0,7,6,0,0,81.0,0.9003488729557858,54.54263339394523,65.33949053508692,5.494313758627413,8.4088714399709,0.00023070078375747165
1,0,5,1000,60.0,1,6.875176187496734,0,3268.5,-6.875176187496734,0,8,6,0,0,81.0,0.9003488729557858,54.54263339394523,65.33949053508692,1.812446952541734,2.7738920791989656,6.2081882973371e-05
1,0,0,599,100.1669449081803,1,43.84378078116181,49,8441.300000071526,5.156219218838189,0,9,6,0,0,81.0,0.9003488729557858,54.54263339394523,65.33949053508692,2.5022511536787277,3.8296153416363623,2.7711049978488514e-05
1,0,3,390,153.84615384615384,1,74.79787473312055,80,4266.0,5.202125266879449,0,10,6,0,0,81.0,0.9003488729557858,54.54263339394523,65.33949053508692,-6.94824342224527,-10.63406427773431,0.0007503093058132483
1,0,0,843,71.17437722419929,2,19.194949373496982,34,12750.0,14.805050626503018,0,11,6,0,0,81.0,0.9003488729557858,54.54263339394523,65.33949053508692,19.713092882920115,30.170258019282077,0.007670238791326797
1,0,4,710,84.50704225352112,0,31.580629700998873,41,3886.899999976158,9.419370299001127,0,12,6,0,0,81.0,0.9003488729557858,54.54263339394523,65.33949053508692,10.527612032331675,16.112173428530806,0.0012593289985379824
1,0,0,425,141.1764705882353,2,68.5984388693479,70,2248.100000023842,1.401561130652098,0,13,6,0,0,81.0,0.9003488729557858,54.54263339394523,65.33949053508692,-8.846883803368229,-13.53987264197829,0.0011165842115057666
1,0,2,302,198.67549668874173,1,93.24415345434716,100,2378.200000047684,6.755846545652844,0,14,6,0,0,81.0,0.9003488729557858,54.54263339394523,65.33949053508692,-11.053652500508477,-16.91726153660891,0.0033474950251979265
1,0,0,710,84.50704225352112,1,31.580629700998873,26,2782.3000000715256,-5.580629700998873,0,15,6,0,0,81.0,0.9003488729557858,54.54263339394523,65.33949053508692,-4.472387967668325,-6.84484670915314,0.0005957728653959245
1,0,4,463,129.58963282937364,1,62.42097125758927,74,2653.399999976158,11.579028742410728,0,16,6,0,0,81.0,0.9003488729557858,54.54263339394523,65.33949053508692,3.2257679276179516,4.936934618254688,0.0001468600287967065
1,0,0,302,198.67549668874173,0,93.24415345434716,100,4091.700000047684,6.755846545652844,0,17,6,0,0,81.0,0.9003488729557858,54.54263339394523,65.33949053508692,-11.053652500508477,-16.91726153660891,0.0033474950251979265
1,0,5,463,129.58963282937364,0,62.42097125758927,78,4042.0,15.579028742410728,0,18,6,0,0,81.0,0.9003488729557858,54.54263339394523,65.33949053508692,7.225767927617952,11.058806654970406,0.0007055984361851876
1,0,1,504,119.04761904761905,1,56.30039424560527,100,3367.1999999284744,43.69960575439473,0,19,6,0,0,81.0,0.9003488729557858,54.54263339394523,65.33949053508692,37.22407560249394,56.97025688087487,0.015475845321602476
1,0,5,302,198.67549668874173,2,93.24415345434716,100,2611.600000023842,6.755846545652844,0,20,6,0,0,81.0,0.9003488729557858,54.54263339394523,65.33949053508692,-11.053652500508477,-16.91726153660891,0.0033474950251979265
1,0,1,425,141.1764705882353,0,68.5984388693479,81,2438.5,12.401561130652098,0,21,6,0,0,81.0,0.9003488729557858,54.54263339394523,65.33949053508692,2.153116196631771,3.295275458989935,0.00011111464921803036
1,0,5,599,100.1669449081803,2,43.84378078116181,50,4646.0,6.156219218838189,0,22,6,0,0,81.0,0.9003488729557858,54.54263339394523,65.33949053508692,3.5022511536787277,5.360083350815293,7.440583106130878e-05
1,0,2,463,129.58963282937364,0,62.42097125758927,58,4367.0,-4.420971257589272,0,23,6,0,0,81.0,0.9003488729557858,54.54263339394523,65.33949053508692,-12.774232072382048,-19.550553528608187,0.0020847901067035327
1,0,3,599,100.1669449081803,1,43.84378078116181,50,4134.5,6.156219218838189,0,24,6,0,0,81.0,0.9003488729557858,54.54263339394523,65.33949053508692,3.5022511536787277,5.360083350815293,7.440583106130878e-05
1,0,4,358,167.5977653631285,2,80.97360155738828,100,4923.899999976158,19.026398442611722,0,25,6,0,0,81.0,0.9003488729557858,54.54263339394523,65.33949053508692,4.981379690124271,7.623842257308847,0.0009719557662623163
1,0,3,918,65.359477124183,1,13.046873249910696,33,3043.5,19.953126750089304,0,26,6,0,0,81.0,0.9003488729557858,54.54263339394523,65.33949053508692,26.74733611664132,40.93594225727573,0.018521045878696612
1,0,1,329,182.370820668693,2,87.06720173383901,100,2953.5,12.932798266160987,0,27,6,0,0,81.0,0.9003488729557858,54.54263339394523,65.33949053508692,-2.9816749309518684,-4.563358095592628,6.607228106708665e-05
1,0,5,652,92.02453987730061,1,37.727982709047225,54,6807.0,16.272017290952775,0,28,6,0,0,81.0,0.9003488729557858,54.54263339394523,65.33949053508692,15.494313758627413,23.713551531760196,0.0026310585772867014
1,0,3,302,198.67549668874173,0,93.24415345434716,100,2294.599999904633,6.755846545652844,0,29,6,0,0,81.0,0.9003488729557858,54.54263339394523,65.33949053508692,-11.053652500508477,-16.91726153660891,0.0033474950251979265
1,0,4,599,100.1669449081803,2,43.84378078116181,48,6816.799999952316,4.156219218838189,0,30,6,0,0,81.0,0.9003488729557858,54.54263339394523,65.33949053508692,1.5022511536787277,2.2991473324574327,3.6190334784302357e-06
1,0,4,1000,60.0,0,6.875176187496734,1,3176.399999976158,-5.875176187496734,1,31,6,0,0,81.0,0.9003488729557858,54.54263339394523,65.33949053508692,2.812446952541734,4.304360088377895,2.4236329470259062e-06
1,0,3,425,141.1764705882353,2,68.5984388693479,100,2855.5,31.401561130652098,1,32,6,0,0,81.0,0.9003488729557858,54.54263339394523,65.33949053508692,21.15311619663177,32.3741676333896,0.007476338525057599
1,0,4,774,77.51937984496124,1,25.354902613380577,42,3893.5,16.645097386619423,1,33,6,0,0,81.0,0.9003488729557858,54.54263339394523,65.33949053508692,19.66332875464107,30.09409561294632,0.006273274615422311
1,0,0,329,182.370820668693,1,87.06720173383901,100,2320.600000023842,12.932798266160987,1,34,6,0,0,81.0,0.9003488729557858,54.54263339394523,65.33949053508692,-2.9816749309518684,-4.563358095592628,6.607228106708665e-05
1,0,3,843,71.17437722419929,2,19.194949373496982,0,3829.0,-19.194949373496982,1,35,6,0,0,81.0,0.9003488729557858,54.54263339394523,65.33949053508692,-14.286907117079885,-21.86565429280153,0.00704441803277269
1,0,4,329,182.370820668693,1,87.06720173383901,100,2868.600000023842,12.932798266160987,1,36,6,0,0,81.0,0.9003488729557858,54.54263339394523,65.33949053508692,-2.9816749309518684,-4.563358095592628,6.607228106708665e-05
1,0,1,710,84.50704225352112,0,31.580629700998873,28,2198.899999976158,-3.5806297009988732,1,37,6,0,0,81.0,0.9003488729557858,54.54263339394523,65.33949053508692,-2.4723879676683254,-3.7839106907952815,0.00026969503348885554
1,0,5,329,182.370820668693,1,87.06720173383901,100,2547.899999976158,12.932798266160987,1,38,6,0,0,81.0,0.9003488729557858,54.54263339394523,65.33949053508692,-2.9816749309518684,-4.563358095592628,6.607228106708665e-05
1,0,3,774,77.51937984496124,0,25.354902613380577,14,4001.899999976158,-11.354902613380577,1,39,6,0,0,81.0,0.9003488729557858,54.54263339394523,65.33949053508692,-8.336671245358929,-12.759008644063707,0.0021469188322535086
1,0,1,358,167.5977653631285,1,80.97360155738828,100,2520.899999976158,19.026398442611722,1,40,6,0,0,81.0,0.9003488729557858,54.54263339394523,65.33949053508692,4.981379690124271,7.623842257308847,0.0009719557662623163
1,0,5,843,71.17437722419929,0,19.194949373496982,0,2421.0,-19.194949373496982,1,41,6,0,0,81.0,0.9003488729557858,54.54263339394523,65.33949053508692,-14.286907117079885,-21.86565429280153,0.00704441803277269
1,0,0,504,119.04761904761905,2,56.30039424560527,50,5097.5,-6.300394245605268,1,42,6,0,0,81.0,0.9003488729557858,54.54263339394523,65.33949053508692,-12.77592439750606,-19.553143578071616,0.0019093346394508297
1,0,2,774,77.51937984496124,1,25.354902613380577,50,3989.3000000715256,24.645097386619423,1,43,6,0,0,81.0,0.9003488729557858,54.54263339394523,65.33949053508692,27.66332875464107,42.33783968637776,0.013241623303326015
1,0,4,504,119.04761904761905,0,56.30039424560527,73,1889.8000000715256,16.69960575439473,1,44,6,0,0,81.0,0.9003488729557858,54.54263339394523,65.33949053508692,10.22407560249394,15.647620633043765,0.0011309158950201083
1,0,0,463,129.58963282937364,0,62.42097125758927,52,3198.0,-10.420971257589272,1,45,6,0,0,81.0,0.9003488729557858,54.54263339394523,65.33949053508692,-18.77423207238205,-28.733361583681766,0.004532828415246154
1,0,1,843,71.17437722419929,1,19.194949373496982,0,2826.600000023842,-19.194949373496982,1,46,6,0,0,81.0,0.9003488729557858,54.54263339394523,65.33949053508692,-14.286907117079885,-21.86565429280153,0.00704441803277269
1,0,5,710,84.50704225352112,2,31.580629700998873,25,4598.200000047684,-6.580629700998873,1,47,6,0,0,81.0,0.9003488729557858,54.54263339394523,65.33949053508692,-5.472387967668325,-8.37531471833207,0.0008066447024639983
1,0,0,918,65.359477124183,0,13.046873249910696,0,2706.0,-13.046873249910696,1,48,6,0,0,81.0,0.9003488729557858,54.54263339394523,65.33949053508692,-6.252663883358679,-9.569502045628953,0.0025705043127452567
1,0,1,599,100.1669449081803,0,43.84378078116181,49,4359.400000095367,5.156219218838189,1,49,6,0,0,81.0,0.9003488729557858,54.54263339394523,65.33949053508692,2.5022511536787277,3.8296153416363623,2.7711049978488514e-05
1,0,2,425,141.1764705882353,1,68.5984388693479,100,2335.0,31.401561130652098,1,50,6,0,0,81.0,0.9003488729557858,54.54263339394523,65.33949053508692,21.15311619663177,32.3741676333896,0.007476338525057599
1,0,3,550,109.0909090909091,0,50.0,50,3850.1999999284735,0.0,1,51,6,0,0,81.0,0.9003488729557858,54.54263339394523,65.33949053508692,-4.542633393945231,-6.952355086861081,0.0002813946109849375
1,0,2,918,65.359477124183,1,13.046873249910696,23,1851.0,9.953126750089304,1,52,6,0,0,81.0,0.9003488729557858,54.54263339394523,65.33949053508692,16.74733611664132,25.63126216548643,0.006318398614581571
1,0,0,652,92.02453987730061,0,37.727982709047225,46,1762.100000023842,8.272017290952775,1,53,6,0,0,81.0,0.9003488729557858,54.54263339394523,65.33949053508692,7.494313758627413,11.469807458328757,0.0005022008867148708
1,0,2,329,182.370820668693,2,87.06720173383901,100,3474.100000023842,12.932798266160987,1,54,6,0,0,81.0,0.9003488729557858,54.54263339394523,65.33949053508692,-2.9816749309518684,-4.563358095592628,6.607228106708665e-05
1,0,1,463,129.58963282937364,1,62.42097125758927,100,4401.900000095367,37.57902874241073,1,55,6,0,0,81.0,0.9003488729557858,54.54263339394523,65.33949053508692,29.22576792761795,44.72910285690686,0.011237689303907927
1,0,3,358,167.5977653631285,1,80.97360155738828,100,2340.0,19.026398442611722,1,56,6,0,0,81.0,0.9003488729557858,54.54263339394523,65.33949053508692,4.981379690124271,7.623842257308847,0.0009719557662623163
1,0,5,550,109.0909090909091,0,50.0,52,4086.100000023842,2.0,1,57,6,0,0,81.0,0.9003488729557858,54.54263339394523,65.33949053508692,-2.5426333939452306,-3.891419068503222,0.00010463826783436728
1,0,4,390,153.84615384615384,2,74.79787473312055,100,5485.299999952316,25.20212526687945,1,58,6,0,0,81.0,0.9003488729557858,54.54263339394523,65.33949053508692,13.05175657775473,19.97529590584428,0.0038820347858902413
1,0,2,599,100.1669449081803,2,43.84378078116181,49,5868.399999976158,5.156219218838189,1,59,6,0,0,81.0,0.9003488729557858,54.54263339394523,65.33949053508692,2.5022511536787277,3.8296153416363623,2.7711049978488514e-05
1,0,5,425,141.1764705882353,2,68.5984388693479,100,1954.700000047684,31.401561130652098,1,60,6,0,0,81.0,0.9003488729557858,54.54263339394523,65.33949053508692,21.15311619663177,32.3741676333896,0.007476338525057599
1,0,0,390,153.84615384615384,1,74.79787473312055,100,2109.399999976158,25.20212526687945,2,61,6,0,0,81.0,0.9003488729557858,54.54263339394523,65.33949053508692,13.05175657775473,19.97529590584428,0.0038820347858902413
1,0,4,302,198.67549668874173,0,93.24415345434716,100,1891.6000000238416,6.755846545652844,2,62,6,0,0,81.0,0.9003488729557858,54.54263339394523,65.33949053508692,-11.053652500508477,-16.91726153660891,0.0033474950251979265
1,0,5,918,65.359477124183,2,13.046873249910696,0,2154.200000047684,-13.046873249910696,2,63,6,0,0,81.0,0.9003488729557858,54.54263339394523,65.33949053508692,-6.252663883358679,-9.569502045628953,0.0025705043127452567
1,0,4,425,141.1764705882353,0,68.5984388693479,100,2125.5,31.401561130652098,2,64,6,0,0,81.0,0.9003488729557858,54.54263339394523,65.33949053508692,21.15311619663177,32.3741676333896,0.007476338525057599
1,0,3,329,182.370820668693,2,87.06720173383901,100,1775.5999999046326,12.932798266160987,2,65,6,0,0,81.0,0.9003488729557858,54.54263339394523,65.33949053508692,-2.9816749309518684,-4.563358095592628,6.607228106708665e-05
1,0,4,843,71.17437722419929,2,19.194949373496982,15,4969.100000023842,-4.194949373496982,2,66,6,0,0,81.0,0.9003488729557858,54.54263339394523,65.33949053508692,0.7130928829201153,1.0913658448824124,6.830103882915165e-05
1,0,1,390,153.84615384615384,2,74.79787473312055,90,2880.399999976158,15.202125266879449,2,67,6,0,0,81.0,0.9003488729557858,54.54263339394523,65.33949053508692,3.0517565777547304,4.670615814054986,0.0003047503877060327
1,0,5,358,167.5977653631285,0,80.97360155738828,100,2917.600000023842,19.026398442611722,2,68,6,0,0,81.0,0.9003488729557858,54.54263339394523,65.33949053508692,4.981379690124271,7.623842257308847,0.0009719557662623163
1,0,3,504,119.04761904761905,2,56.30039424560527,48,5643.0,-8.300394245605268,2,69,6,0,0,81.0,0.9003488729557858,54.54263339394523,65.33949053508692,-14.77592439750606,-22.614079596429477,0.0025421612016251986
1,0,5,390,153.84615384615384,1,74.79787473312055,90,4473.300000071526,15.202125266879449,2,70,6,0,0,81.0,0.9003488729557858,54.54263339394523,65.33949053508692,3.0517565777547304,4.670615814054986,0.0003047503877060327
1,0,1,918,65.359477124183,2,13.046873249910696,12,7060.700000047684,-1.0468732499106963,2,71,6,0,0,81.0,0.9003488729557858,54.54263339394523,65.33949053508692,5.747336116641321,8.796114064518203,0.0002966762257679804
1,0,5,774,77.51937984496124,0,25.354902613380577,7,4645.799999952316,-18.354902613380577,2,72,6,0,0,81.0,0.9003488729557858,54.54263339394523,65.33949053508692,-15.336671245358929,-23.472284708316216,0.006040331704914748
1,0,4,550,109.0909090909091,1,50.0,51,2364.2999999523163,1.0,2,73,6,0,0,81.0,0.9003488729557858,54.54263339394523,65.33949053508692,-3.5426333939452306,-5.421887077682152,0.00018230542926229014
1,0,0,774,77.51937984496124,2,25.354902613380577,0,3968.600000023842,-25.354902613380577,2,74,6,0,0,81.0,0.9003488729557858,54.54263339394523,65.33949053508692,-22.33667124535893,-34.18556077256872,0.011903745304957358
1,0,5,504,119.04761904761905,1,56.30039424560527,50,4378.200000047684,-6.300394245605268,2,75,6,0,0,81.0,0.9003488729557858,54.54263339394523,65.33949053508692,-12.77592439750606,-19.553143578071616,0.0019093346394508297
1,0,4,652,92.02453987730061,2,37.727982709047225,0,3010.2999999523163,-37.727982709047225,2,76,6,0,0,81.0,0.9003488729557858,54.54263339394523,65.33949053508692,-38.50568624137259,-58.931720963902,0.02064198767087321
1,0,0,550,109.0909090909091,0,50.0,47,3811.0,-3.0,2,77,6,0,0,81.0,0.9003488729557858,54.54263339394523,65.33949053508692,-7.542633393945231,-11.54375911439787,0.0007071942779212279
1,0,2,358,167.5977653631285,0,80.97360155738828,100,1575.8000000715256,19.026398442611722,2,78,6,0,0,81.0,0.9003488729557858,54.54263339394523,65.33949053508692,4.981379690124271,7.623842257308847,0.0009719557662623163
1,0,1,550,109.0909090909091,2,50.0,48,2463.0,-2.0,2,79,6,0,0,81.0,0.9003488729557858,54.54263339394523,65.33949053508692,-6.542633393945231,-10.013291105218942,0.0005438390353144064
1,0,2,710,84.50704225352112,2,31.580629700998873,1,2336.5,-30.580629700998873,2,80,6,0,0,81.0,0.9003488729557858,54.54263339394523,65.33949053508692,-29.472387967668325,-45.10654693862638,0.015434153015005699
1,0,0,358,167.5977653631285,2,80.97360155738828,100,1444.5,19.026398442611722,2,81,6,0,0,81.0,0.9003488729557858,54.54263339394523,65.33949053508692,4.981379690124271,7.623842257308847,0.0009719557662623163
1,0,2,550,109.0909090909091,1,50.0,47,2941.899999976158,-3.0,2,82,6,0,0,81.0,0.9003488729557858,54.54263339394523,65.33949053508692,-7.542633393945231,-11.54375911439787,0.0007071942779212279
1,0,3,710,84.50704225352112,2,31.580629700998873,6,1447.600000023842,-25.580629700998873,2,83,6,0,0,81.0,0.9003488729557858,54.54263339394523,65.33949053508692,-24.472387967668325,-37.45420689273173,0.010872046281265757
1,0,2,843,71.17437722419929,2,19.194949373496982,47,3420.899999976158,27.805050626503018,2,84,6,0,0,81.0,0.9003488729557858,54.54263339394523,65.33949053508692,32.713092882920115,50.06634213860816,0.023457252990993913
1,0,1,774,77.51937984496124,2,25.354902613380577,22,5620.299999952316,-3.3549026133805775,2,85,6,0,0,81.0,0.9003488729557858,54.54263339394523,65.33949053508692,-0.3366712453589287,-0.5152645706322705,0.00010954990927092096
1,0,0,1000,60.0,1,6.875176187496734,21,2281.7999999523163,14.124823812503266,2,86,6,0,0,81.0,0.9003488729557858,54.54263339394523,65.33949053508692,22.812446952541734,34.913720271956485,0.015597829175253517
1,0,2,390,153.84615384615384,2,74.79787473312055,100,1718.100000023842,25.20212526687945,2,87,6,0,0,81.0,0.9003488729557858,54.54263339394523,65.33949053508692,13.05175657775473,19.97529590584428,0.0038820347858902413
1,0,3,1000,60.0,0,6.875176187496734,0,2622.0,-6.875176187496734,2,88,6,0,0,81.0,0.9003488729557858,54.54263339394523,65.33949053508692,1.812446952541734,2.7738920791989656,6.2081882973371e-05
1,0,1,302,198.67549668874173,0,93.24415345434716,99,3104.200000047684,5.755846545652844,2,89,6,0,0,81.0,0.9003488729557858,54.54263339394523,65.33949053508692,-12.053652500508477,-18.447729545787837,0.0041188161053671984
1,0,3,463,129.58963282937364,0,62.42097125758927,57,8136.0,-5.420971257589272,2,90,6,0,0,81.0,0.9003488729557858,54.54263339394523,65.33949053508692,-13.774232072382048,-21.081021537787116,0.0024275951835315626
1,0,4,652,92.02453987730061,1,37.727982709047225,46,1973.0,8.272017290952775,3,91,6,0,0,81.0,0.9003488729557858,54.54263339394523,65.33949053508692,7.494313758627413,11.469807458328757,0.0005022008867148708
1,0,2,1000,60.0,1,6.875176187496734,0,2719.2999999523163,-6.875176187496734,3,92,6,0,0,81.0,0.9003488729557858,54.54263339394523,65.33949053508692,1.812446952541734,2.7738920791989656,6.2081882973371e-05
1,0,5,652,92.02453987730061,0,37.727982709047225,45,3469.5,7.272017290952775,3,93,6,0,0,81.0,0.9003488729557858,54.54263339394523,65.33949053508692,6.494313758627413,9.939339449149829,0.0003534151192518932
1,0,2,599,100.1669449081803,0,43.84378078116181,46,2224.700000047684,2.1562192188381886,3,94,6,0,0,81.0,0.9003488729557858,54.54263339394523,65.33949053508692,-0.49774884632127225,-0.7617886859004265,2.3243294226599628e-05
1,0,1,843,71.17437722419929,1,19.194949373496982,0,3843.1999999284735,-19.194949373496982,3,95,6,0,0,81.0,0.9003488729557858,54.54263339394523,65.33949053508692,-14.286907117079885,-21.86565429280153,0.00704441803277269
1,0,4,302,198.67549668874173,2,93.24415345434716,100,1922.399999976158,6.755846545652844,3,96,6,0,0,81.0,0.9003488729557858,54.54263339394523,65.33949053508692,-11.053652500508477,-16.91726153660891,0.0033474950251979265
1,0,3,390,153.84615384615384,0,74.79787473312055,100,1724.7999999523165,25.20212526687945,3,97,6,0,0,81.0,0.9003488729557858,54.54263339394523,65.33949053508692,13.05175657775473,19.97529590584428,0.0038820347858902413
1,0,4,550,109.0909090909091,2,50.0,47,16972.699999928474,-3.0,3,98,6,0,0,81.0,0.9003488729557858,54.54263339394523,65.33949053508692,-7.542633393945231,-11.54375911439787,0.0007071942779212279
1,0,2,390,153.84615384615384,1,74.79787473312055,47,9374.700000047684,-27.79787473312055,3,99,6,0,0,81.0,0.9003488729557858,54.54263339394523,65.33949053508692,-39.94824342224527,-61.13950858063899,0.030762727064654716
1,0,1,652,92.02453987730061,0,37.727982709047225,7,4678.200000047684,-30.727982709047225,3,100,6,0,0,81.0,0.9003488729557858,54.54263339394523,65.33949053508692,-31.505686241372587,-48.2184448996495,0.01401848704435864
1,0,5,390,153.84615384615384,0,74.79787473312055,100,3724.299999952316,25.20212526687945,3,101,6,0,0,81.0,0.9003488729557858,54.54263339394523,65.33949053508692,13.05175657775473,19.97529590584428,0.0038820347858902413
1,0,2,302,198.67549668874173,0,93.24415345434716,100,5367.600000023842,6.755846545652844,3,102,6,0,0,81.0,0.9003488729557858,54.54263339394523,65.33949053508692,-11.053652500508477,-16.91726153660891,0.0033474950251979265
1,0,1,463,129.58963282937364,1,62.42097125758927,53,3596.399999976158,-9.420971257589272,3,103,6,0,0,81.0,0.9003488729557858,54.54263339394523,65.33949053508692,-17.77423207238205,-27.202893574502834,0.004059620722559976
1,0,0,302,198.67549668874173,0,93.24415345434716,100,2829.200000047684,6.755846545652844,3,104,6,0,0,81.0,0.9003488729557858,54.54263339394523,65.33949053508692,-11.053652500508477,-16.91726153660891,0.0033474950251979265
1,0,4,425,141.1764705882353,2,68.5984388693479,65,2763.2999999523163,-3.598438869347902,3,105,6,0,0,81.0,0.9003488729557858,54.54263339394523,65.33949053508692,-13.846883803368229,-21.19221268787294,0.002851081659342486
1,0,1,599,100.1669449081803,1,43.84378078116181,0,3450.6999999284744,-43.84378078116181,3,106,6,0,0,81.0,0.9003488729557858,54.54263339394523,65.33949053508692,-46.49774884632127,-71.16331710813118,0.025428053390803725
1,0,0,652,92.02453987730061,2,37.727982709047225,37,2423.3000000715256,-0.7279827090472253,3,107,6,0,0,81.0,0.9003488729557858,54.54263339394523,65.33949053508692,-1.5056862413725867,-2.304404624281608,0.00010170053041608419
1,0,3,843,71.17437722419929,2,19.194949373496982,2,2535.3000000715256,-17.194949373496982,3,108,6,0,0,81.0,0.9003488729557858,54.54263339394523,65.33949053508692,-12.286907117079885,-18.804718274443672,0.00545266357718371
1,0,0,550,109.0909090909091,1,50.0,48,3601.600000023842,-2.0,3,109,6,0,0,81.0,0.9003488729557858,54.54263339394523,65.33949053508692,-6.542633393945231,-10.013291105218942,0.0005438390353144064
1,0,4,1000,60.0,2,6.875176187496734,0,1726.600000023842,-6.875176187496734,3,110,6,0,0,81.0,0.9003488729557858,54.54263339394523,65.33949053508692,1.812446952541734,2.7738920791989656,6.2081882973371e-05
1,0,0,390,153.84615384615384,2,74.79787473312055,100,2691.100000023842,25.20212526687945,3,111,6,0,0,81.0,0.9003488729557858,54.54263339394523,65.33949053508692,13.05175657775473,19.97529590584428,0.0038820347858902413
1,0,5,550,109.0909090909091,0,50.0,100,3569.5,50.0,3,112,6,0,0,81.0,0.9003488729557858,54.54263339394523,65.33949053508692,45.45736660605477,69.57104537208541,0.021568910385890264
1,0,1,302,198.67549668874173,0,93.24415345434716,100,2515.0,6.755846545652844,3,113,6,0,0,81.0,0.9003488729557858,54.54263339394523,65.33949053508692,-11.053652500508477,-16.91726153660891,0.0033474950251979265
1,0,2,774,77.51937984496124,0,25.354902613380577,48,2842.1999999284744,22.645097386619423,3,114,6,0,0,81.0,0.9003488729557858,54.54263339394523,65.33949053508692,25.66332875464107,39.276903668019905,0.011258311552487063
1,0,5,329,182.370820668693,0,87.06720173383901,100,1760.5,12.932798266160987,3,115,6,0,0,81.0,0.9003488729557858,54.54263339394523,65.33949053508692,-2.9816749309518684,-4.563358095592628,6.607228106708665e-05
1,0,3,504,119.04761904761905,2,56.30039424560527,53,3189.700000047684,-3.3003942456052684,3,116,6,0,0,81.0,0.9003488729557858,54.54263339394523,65.33949053508692,-9.77592439750606,-14.961739550534828,0.0011296361888999164
1,0,0,918,65.359477124183,1,13.046873249910696,48,5886.0,34.953126750089304,3,117,6,0,0,81.0,0.9003488729557858,54.54263339394523,65.33949053508692,41.74733611664132,63.892962394959675,0.04883993495946814
1,0,3,358,167.5977653631285,0,80.97360155738828,100,2756.3000000715256,19.026398442611722,3,118,6,0,0,81.0,0.9003488729557858,54.54263339394523,65.33949053508692,4.981379690124271,7.623842257308847,0.0009719557662623163
1,0,5,843,71.17437722419929,1,19.194949373496982,0,3467.899999976158,-19.194949373496982,3,119,6,0,0,81.0,0.9003488729557858,54.54263339394523,65.33949053508692,-14.286907117079885,-21.86565429280153,0.00704441803277269
1,0,3,652,92.02453987730061,2,37.727982709047225,48,2150.7999999523163,10.272017290952775,3,120,6,0,0,81.0,0.9003488729557858,54.54263339394523,65.33949053508692,9.494313758627413,14.530743476686617,0.000877986717546493
1,0,1,710,84.50704225352112,1,31.580629700998873,0,2237.2999999523163,-31.580629700998873,4,121,6,0,0,81.0,0.9003488729557858,54.54263339394523,65.33949053508692,-30.472387967668325,-46.63701494780531,0.016442240203982765
1,0,2,918,65.359477124183,2,13.046873249910696,47,3036.399999976158,33.953126750089304,4,122,6,0,0,81.0,0.9003488729557858,54.54263339394523,65.33949053508692,40.74733611664132,62.36249438578074,0.04637011874185833
1,0,0,463,129.58963282937364,1,62.42097125758927,100,1433.2000000476835,37.57902874241073,4,123,6,0,0,81.0,0.9003488729557858,54.54263339394523,65.33949053508692,29.22576792761795,44.72910285690686,0.011237689303907927
1,0,3,302,198.67549668874173,1,93.24415345434716,100,1573.2000000476835,6.755846545652844,4,124,6,0,0,81.0,0.9003488729557858,54.54263339394523,65.33949053508692,-11.053652500508477,-16.91726153660891,0.0033474950251979265
1,0,2,463,129.58963282937364,0,62.42097125758927,92,2492.0,29.579028742410728,4,125,6,0,0,81.0,0.9003488729557858,54.54263339394523,65.33949053508692,21.22576792761795,32.48535878347542,0.005947328781670212
1,0,4,329,182.370820668693,0,87.06720173383901,99,2388.5,11.932798266160987,4,126,6,0,0,81.0,0.9003488729557858,54.54263339394523,65.33949053508692,-3.9816749309518684,-6.0938261047715585,0.0001900670140633016
1,0,5,918,65.359477124183,2,13.046873249910696,0,2567.600000023842,-13.046873249910696,4,127,6,0,0,81.0,0.9003488729557858,54.54263339394523,65.33949053508692,-6.252663883358679,-9.569502045628953,0.0025705043127452567
1,0,4,710,84.50704225352112,2,31.580629700998873,3,2615.399999976158,-28.580629700998873,4,128,6,0,0,81.0,0.9003488729557858,54.54263339394523,65.33949053508692,-27.472387967668325,-42.04561092026852,0.01351364447928064
1,0,0,843,71.17437722419929,2,19.194949373496982,48,3905.200000047684,28.805050626503018,4,129,6,0,0,81.0,0.9003488729557858,54.54263339394523,65.33949053508692,33.713092882920115,51.59681014778709,0.025027887826463868
1,0,4,599,100.1669449081803,1,43.84378078116181,47,4912.600000023842,3.1562192188381886,4,130,6,0,0,81.0,0.9003488729557858,54.54263339394523,65.33949053508692,0.5022511536787277,0.7686793232785031,2.129781561133939e-06
1,0,3,918,65.359477124183,0,13.046873249910696,48,3801.3000000715256,34.953126750089304,4,131,6,0,0,81.0,0.9003488729557858,54.54263339394523,65.33949053508692,41.74733611664132,63.892962394959675,0.04883993495946814
1,0,5,599,100.1669449081803,1,43.84378078116181,48,3809.400000095368,4.156219218838189,4,132,6,0,0,81.0,0.9003488729557858,54.54263339394523,65.33949053508692,1.5022511536787277,2.2991473324574327,3.6190334784302357e-06
1,0,4,918,65.359477124183,0,13.046873249910696,0,2898.899999976158,-13.046873249910696,4,133,6,0,0,81.0,0.9003488729557858,54.54263339394523,65.33949053508692,-6.252663883358679,-9.569502045628953,0.0025705043127452567
1,0,1,504,119.04761904761905,0,56.30039424560527,54,4232.400000095367,-2.3003942456052684,4,134,6,0,0,81.0,0.9003488729557858,54.54263339394523,65.33949053508692,-8.77592439750606,-13.431271541355896,0.0009149477434391155
1,0,0,358,167.5977653631285,1,80.97360155738828,99,8449.699999928474,18.026398442611722,4,135,6,0,0,81.0,0.9003488729557858,54.54263339394523,65.33949053508692,3.981379690124271,6.0933742481299165,0.0006827104176298363
1,0,1,1000,60.0,0,6.875176187496734,0,2334.599999904633,-6.875176187496734,4,136,6,0,0,81.0,0.9003488729557858,54.54263339394523,65.33949053508692,1.812446952541734,2.7738920791989656,6.2081882973371e-05
1,0,5,358,167.5977653631285,1,80.97360155738828,100,2082.399999976158,19.026398442611722,4,137,6,0,0,81.0,0.9003488729557858,54.54263339394523,65.33949053508692,4.981379690124271,7.623842257308847,0.0009719557662623163
1,0,2,710,84.50704225352112,2,31.580629700998873,39,7084.200000047684,7.419370299001127,4,138,6,0,0,81.0,0.9003488729557858,54.54263339394523,65.33949053508692,8.527612032331675,13.051237410172945,0.0007563028644596979
1,0,1,329,182.370820668693,2,87.06720173383901,100,1859.1999999284744,12.932798266160987,4,139,6,0,0,81.0,0.9003488729557858,54.54263339394523,65.33949053508692,-2.9816749309518684,-4.563358095592628,6.607228106708665e-05
1,0,3,710,84.50704225352112,1,31.580629700998873,0,3671.099999904633,-31.580629700998873,4,140,6,0,0,81.0,0.9003488729557858,54.54263339394523,65.33949053508692,-30.472387967668325,-46.63701494780531,0.016442240203982765
1,0,1,425,141.1764705882353,2,68.5984388693479,100,1809.200000047684,31.401561130652098,4,141,6,0,0,81.0,0.9003488729557858,54.54263339394523,65.33949053508692,21.15311619663177,32.3741676333896,0.007476338525057599
1,0,0,599,100.1669449081803,0,43.84378078116181,48,2580.599999904633,4.156219218838189,4,142,6,0,0,81.0,0.9003488729557858,54.54263339394523,65.33949053508692,1.5022511536787277,2.2991473324574327,3.6190334784302357e-06
1,0,2,329,182.370820668693,2,87.06720173383901,100,1759.899999976158,12.932798266160987,4,143,6,0,0,81.0,0.9003488729557858,54.54263339394523,65.33949053508692,-2.9816749309518684,-4.563358095592628,6.607228106708665e-05
1,0,0,710,84.50704225352112,1,31.580629700998873,48,2359.200000047684,16.419370299001127,4,144,6,0,0,81.0,0.9003488729557858,54.54263339394523,65.33949053508692,17.527612032331675,26.82544949278331,0.004024411811217308
1,0,3,463,129.58963282937364,1,62.42097125758927,53,8297.599999904633,-9.420971257589272,4,145,6,0,0,81.0,0.9003488729557858,54.54263339394523,65.33949053508692,-17.77423207238205,-27.202893574502834,0.004059620722559976
1,0,5,774,77.51937984496124,2,25.354902613380577,53,3465.399999976158,27.645097386619423,4,146,6,0,0,81.0,0.9003488729557858,54.54263339394523,65.33949053508692,30.66332875464107,46.929243713914545,0.01651812165316322
1,0,3,599,100.1669449081803,0,43.84378078116181,46,2750.2999999523163,2.1562192188381886,4,147,6,0,0,81.0,0.9003488729557858,54.54263339394523,65.33949053508692,-0.49774884632127225,-0.7617886859004265,2.3243294226599628e-05
1,0,5,463,129.58963282937364,1,62.42097125758927,94,6232.199999928474,31.579028742410728,4,148,6,0,0,81.0,0.9003488729557858,54.54263339394523,65.33949053508692,23.22576792761795,35.54629480183328,0.007113435773199863
1,0,2,550,109.0909090909091,1,50.0,46,5175.5,-4.0,4,149,6,0,0,81.0,0.9003488729557858,54.54263339394523,65.33949053508692,-8.54263339394523,-13.0742271235768,0.0008919715408227739
1,0,4,463,129.58963282937364,1,62.42097125758927,58,3634.600000023842,-4.420971257589272,4,150,6,0,0,81.0,0.9003488729557858,54.54263339394523,65.33949053508692,-12.774232072382048,-19.550553528608187,0.0020847901067035327
1,0,2,358,167.5977653631285,1,80.97360155738828,100,1736.600000023842,19.026398442611722,5,151,6,0,0,81.0,0.9003488729557858,54.54263339394523,65.33949053508692,4.981379690124271,7.623842257308847,0.0009719557662623163
1,0,0,425,141.1764705882353,0,68.5984388693479,100,2353.2999999523163,31.401561130652098,5,152,6,0,0,81.0,0.9003488729557858,54.54263339394523,65.33949053508692,21.15311619663177,32.3741676333896,0.007476338525057599
1,0,5,710,84.50704225352112,1,31.580629700998873,48,1909.399999976158,16.419370299001127,5,153,6,0,0,81.0,0.9003488729557858,54.54263339394523,65.33949053508692,17.527612032331675,26.82544949278331,0.004024411811217308
1,0,3,550,109.0909090909091,1,50.0,47,2298.8000000715256,-3.0,5,154,6,0,0,81.0,0.9003488729557858,54.54263339394523,65.33949053508692,-7.542633393945231,-11.54375911439787,0.0007071942779212279
1,0,1,774,77.51937984496124,2,25.354902613380577,0,2596.3000000715256,-25.354902613380577,5,155,6,0,0,81.0,0.9003488729557858,54.54263339394523,65.33949053508692,-22.33667124535893,-34.18556077256872,0.011903745304957358
1,0,0,504,119.04761904761905,2,56.30039424560527,47,4117.300000071526,-9.300394245605268,5,156,6,0,0,81.0,0.9003488729557858,54.54263339394523,65.33949053508692,-15.77592439750606,-24.144547605608405,0.002892482761254511
1,0,1,918,65.359477124183,2,13.046873249910696,0,2301.200000047684,-13.046873249910696,5,157,6,0,0,81.0,0.9003488729557858,54.54263339394523,65.33949053508692,-6.252663883358679,-9.569502045628953,0.0025705043127452567
1,0,0,774,77.51937984496124,0,25.354902613380577,6,2088.1999999284744,-19.354902613380577,5,158,6,0,0,81.0,0.9003488729557858,54.54263339394523,65.33949053508692,-16.33667124535893,-25.00275271749515,0.006757349929775035
1,0,2,425,141.1764705882353,2,68.5984388693479,100,1609.4000000953674,31.401561130652098,5,159,6,0,0,81.0,0.9003488729557858,54.54263339394523,65.33949053508692,21.15311619663177,32.3741676333896,0.007476338525057599
1,0,4,774,77.51937984496124,0,25.354902613380577,43,2026.8000000715256,17.645097386619423,5,160,6,0,0,81.0,0.9003488729557858,54.54263339394523,65.33949053508692,20.66332875464107,31.62456362212525,0.007003603863740178
1,0,2,504,119.04761904761905,2,56.30039424560527,86,1293.6999999284744,29.69960575439473,5,161,6,0,0,81.0,0.9003488729557858,54.54263339394523,65.33949053508692,23.22407560249394,35.543704752369855,0.0059806315355225275
1,0,3,774,77.51937984496124,0,25.354902613380577,0,2830.100000023842,-25.354902613380577,5,162,6,0,0,81.0,0.9003488729557858,54.54263339394523,65.33949053508692,-22.33667124535893,-34.18556077256872,0.011903745304957358
1,0,5,302,198.67549668874173,2,93.24415345434716,100,3109.599999904633,6.755846545652844,5,163,6,0,0,81.0,0.9003488729557858,54.54263339394523,65.33949053508692,-11.053652500508477,-16.91726153660891,0.0033474950251979265
1,0,4,390,153.84615384615384,0,74.79787473312055,98,1823.5,23.20212526687945,5,164,6,0,0,81.0,0.9003488729557858,54.54263339394523,65.33949053508692,11.05175657775473,16.914359887486423,0.0028447504409500855
1,0,0,329,182.370820668693,2,87.06720173383901,78,5971.399999976158,-9.067201733839013,5,165,6,0,0,81.0,0.9003488729557858,54.54263339394523,65.33949053508692,-24.98167493095187,-38.23365429752908,0.01758391238841242
1,0,4,843,71.17437722419929,1,19.194949373496982,38,7368.100000023842,18.805050626503018,5,166,6,0,0,81.0,0.9003488729557858,54.54263339394523,65.33949053508692,23.713092882920115,36.292130055997795,0.011611712436213818
1,0,3,329,182.370820668693,2,87.06720173383901,100,1845.399999976158,12.932798266160987,5,167,6,0,0,81.0,0.9003488729557858,54.54263339394523,65.33949053508692,-2.9816749309518684,-4.563358095592628,6.607228106708665e-05
1,0,5,504,119.04761904761905,2,56.30039424560527,48,3299.6999999284744,-8.300394245605268,5,168,6,0,0,81.0,0.9003488729557858,54.54263339394523,65.33949053508692,-14.77592439750606,-22.614079596429477,0.0025421612016251986
1,0,2,652,92.02453987730061,1,37.727982709047225,38,2971.700000047684,0.2720172909527747,5,169,6,0,0,81.0,0.9003488729557858,54.54263339394523,65.33949053508692,-0.5056862413725867,-0.7739366151026784,4.191484213061482e-05
1,0,1,550,109.0909090909091,2,50.0,43,1698.100000023842,-7.0,5,170,6,0,0,81.0,0.9003488729557858,54.54263339394523,65.33949053508692,-11.54263339394523,-17.66563115111359,0.0015748354512957602
1,0,2,843,71.17437722419929,0,19.194949373496982,0,1852.200000047684,-19.194949373496982,5,171,6,0,0,81.0,0.9003488729557858,54.54263339394523,65.33949053508692,-14.286907117079885,-21.86565429280153,0.00704441803277269
1,0,1,358,167.5977653631285,1,80.97360155738828,97,1921.700000047684,16.026398442611722,5,172,6,0,0,81.0,0.9003488729557858,54.54263339394523,65.33949053508692,1.981379690124271,3.032438229772058,0.0002570818833302687
1,0,5,425,141.1764705882353,2,68.5984388693479,100,1346.899999976158,31.401561130652098,5,173,6,0,0,81.0,0.9003488729557858,54.54263339394523,65.33949053508692,21.15311619663177,32.3741676333896,0.007476338525057599
1,0,4,504,119.04761904761905,0,56.30039424560527,52,1765.399999976158,-4.300394245605268,5,174,6,0,0,81.0,0.9003488729557858,54.54263339394523,65.33949053508692,-10.77592439750606,-16.492207559713755,0.001366930153388802
1,0,5,1000,60.0,0,6.875176187496734,0,2877.399999976158,-6.875176187496734,5,175,6,0,0,81.0,0.9003488729557858,54.54263339394523,65.33949053508692,1.812446952541734,2.7738920791989656,6.2081882973371e-05
1,0,4,358,167.5977653631285,1,80.97360155738828,99,3209.100000023842,18.026398442611722,5,176,6,0,0,81.0,0.9003488729557858,54.54263339394523,65.33949053508692,3.981379690124271,6.0933742481299165,0.0006827104176298363
1,0,3,425,141.1764705882353,2,68.5984388693479,99,6668.599999904633,30.401561130652098,5,177,6,0,0,81.0,0.9003488729557858,54.54263339394523,65.33949053508692,20.15311619663177,30.843699624210668,0.006801265351732926
1,0,0,1000,60.0,0,6.875176187496734,0,1739.5999999046326,-6.875176187496734,5,178,6,0,0,81.0,0.9003488729557858,54.54263339394523,65.33949053508692,1.812446952541734,2.7738920791989656,6.2081882973371e-05
1,0,1,390,153.84615384615384,0,74.79787473312055,98,2068.899999976158,23.20212526687945,5,179,6,0,0,81.0,0.9003488729557858,54.54263339394523,65.33949053508692,11.05175657775473,16.914359887486423,0.0028447504409500855
1,0,3,1000,60.0,1,6.875176187496734,1,3789.0,-5.875176187496734,5,180,6,0,0,81.0,0.9003488729557858,54.54263339394523,65.33949053508692,2.812446952541734,4.304360088377895,2.4236329470259062e-06
2,0,5,774,77.51937984496124,0,25.354902613380577,33,2478.800000000745,7.6450973866194225,0,1,2,3,1,0.0,0.45014210096769436,52.92594739667855,8.262572797410037,-15.853309171554493,-191.86891976944307,0.015529368534072363
2,0,2,843,71.17437722419929,1,19.194949373496982,38,2874.5,18.805050626503018,0,2,2,3,1,0.0,0.45014210096769436,52.92594739667855,8.262572797410037,-9.835367930090896,-119.03517428825394,0.0074169791086351345
2,0,1,710,84.50704225352112,0,31.580629700998873,43,3974.5,11.419370299001127,0,3,2,3,1,0.0,0.45014210096769436,52.92594739667855,8.262572797410037,-6.8821196371195725,-83.29269594183573,0.0022946089713089305
2,0,4,425,141.1764705882353,2,68.5984388693479,67,2120.5999999996275,-1.598438869347902,0,4,2,3,1,0.0,0.45014210096769436,52.92594739667855,8.262572797410037,11.000633501798099,133.13811292829186,0.005885613569826524
2,0,5,599,100.1669449081803,1,43.84378078116181,54,5681.599999999628,10.156219218838189,0,5,2,3,1,0.0,0.45014210096769436,52.92594739667855,8.262572797410037,2.0913767923707525,25.311447700966816,0.00015748668103882565
2,0,1,390,153.84615384615384,1,74.79787473312055,56,4784.0,-18.79787473312055,0,6,2,3,1,0.0,0.45014210096769436,52.92594739667855,8.262572797410037,-1.0238323007478272,-12.391204602381897,9.307926442747304e-05
2,0,3,504,119.04761904761905,2,56.30039424560527,64,1994.4000000003723,7.699605754394732,0,7,2,3,1,0.0,0.45014210096769436,52.92594739667855,8.262572797410037,10.032903281187515,121.42589877492395,0.0035147542970794406
2,0,1,302,198.67549668874173,0,93.24415345434716,81,2673.0,-12.244153454347156,0,8,2,3,1,0.0,0.45014210096769436,52.92594739667855,8.262572797410037,20.927893283743167,253.28543296227494,0.053123103386424196
2,0,5,918,65.359477124183,0,13.046873249910696,23,1734.5999999996277,9.953126750089304,0,9,2,3,1,0.0,0.45014210096769436,52.92594739667855,8.262572797410037,-23.819389399387887,-288.28053904534727,0.05582270432529157
2,0,1,550,109.0909090909091,0,50.0,53,7022.9000000003725,3.0,0,10,2,3,1,0.0,0.45014210096769436,52.92594739667855,8.262572797410037,0.07405260332144792,0.8962414630060536,8.608041334942875e-08
2,0,0,390,153.84615384615384,2,74.79787473312055,55,4079.099999999628,-19.79787473312055,0,11,2,3,1,0.0,0.45014210096769436,52.92594739667855,8.262572797410037,-2.023832300747827,-24.493972402666298,0.00030915942031947696
2,0,4,652,92.02453987730061,1,37.727982709047225,47,2428.7000000001863,9.272017290952775,0,12,2,3,1,0.0,0.45014210096769436,52.92594739667855,8.262572797410037,-3.8979786719271132,-47.17633075679481,0.0006010864273551312
2,0,1,918,65.359477124183,2,13.046873249910696,38,3682.300000000745,24.953126750089304,0,13,2,3,1,0.0,0.45014210096769436,52.92594739667855,8.262572797410037,-8.819389399387887,-106.7390220410813,0.007403536307878989
2,0,3,774,77.51937984496124,1,25.354902613380577,46,3446.100000000559,20.645097386619423,0,14,2,3,1,0.0,0.45014210096769436,52.92594739667855,8.262572797410037,-2.8533091715544927,-34.53293836574588,0.0004618579959014708
2,0,0,1000,60.0,0,6.875176187496734,37,2403.2000000001863,30.124823812503266,0,15,2,3,1,0.0,0.45014210096769436,52.92594739667855,8.262572797410037,-8.799507474152747,-106.49839571653779,0.009104143634910734
2,0,4,358,167.5977653631285,2,80.97360155738828,77,2973.9000000003725,-3.973601557388278,0,16,2,3,1,0.0,0.45014210096769436,52.92594739667855,8.262572797410037,18.95561985000358,229.41546555505514,0.027954123833564062
2,0,2,599,100.1669449081803,0,43.84378078116181,57,2672.7000000001863,13.156219218838189,0,17,2,3,1,0.0,0.45014210096769436,52.92594739667855,8.262572797410037,5.0913767923707525,61.61975110182002,0.0009237557028078863
2,0,3,843,71.17437722419929,2,19.194949373496982,56,2411.5999999996275,36.80505062650302,0,18,2,3,1,0.0,0.45014210096769436,52.92594739667855,8.262572797410037,8.164632069909104,98.81464611686526,0.005554955444475969
2,0,4,504,119.04761904761905,2,56.30039424560527,63,2485.7999999998137,6.699605754394732,0,19,2,3,1,0.0,0.45014210096769436,52.92594739667855,8.262572797410037,9.032903281187515,109.32313097463957,0.0028448363745701
2,0,5,302,198.67549668874173,2,93.24415345434716,89,9431.5,-4.244153454347156,0,20,2,3,1,0.0,0.45014210096769436,52.92594739667855,8.262572797410037,28.927893283743167,350.10757536455014,0.10236641093246741
2,0,0,599,100.1669449081803,0,43.84378078116181,42,4384.099999999628,-1.8437807811618114,0,21,2,3,1,0.0,0.45014210096769436,52.92594739667855,8.262572797410037,-9.908623207629248,-119.92176590244598,0.003460562968130796
2,0,5,390,153.84615384615384,0,74.79787473312055,66,4362.299999999814,-8.797874733120551,0,22,2,3,1,0.0,0.45014210096769436,52.92594739667855,8.262572797410037,8.976167699252173,108.6364734004621,0.004858639654118646
2,0,2,302,198.67549668874173,1,93.24415345434716,59,2852.399999999441,-34.244153454347156,0,23,2,3,1,0.0,0.45014210096769436,52.92594739667855,8.262572797410037,-1.0721067162568332,-12.975458643981844,0.00024145418583388414
2,0,3,390,153.84615384615384,1,74.79787473312055,62,3123.2000000001863,-12.797874733120551,0,24,2,3,1,0.0,0.45014210096769436,52.92594739667855,8.262572797410037,4.976167699252173,60.225402199324506,0.001441209254908822
2,0,0,710,84.50704225352112,1,31.580629700998873,60,2434.600000000559,28.419370299001127,0,25,2,3,1,0.0,0.45014210096769436,52.92594739667855,8.262572797410037,10.117880362880427,122.45435666299909,0.005213076243807917
2,0,4,918,65.359477124183,0,13.046873249910696,54,5502.5,40.953126750089304,0,26,2,3,1,0.0,0.45014210096769436,52.92594739667855,8.262572797410037,7.180610600612113,86.90526276346911,0.0055049937834699735
2,0,3,358,167.5977653631285,2,80.97360155738828,59,4590.700000000186,-21.973601557388278,0,27,2,3,1,0.0,0.45014210096769436,52.92594739667855,8.262572797410037,0.9556198500035791,11.565645149935925,4.1533524797127315e-05
2,0,2,425,141.1764705882353,1,68.5984388693479,57,4962.300000000745,-11.598438869347902,0,28,2,3,1,0.0,0.45014210096769436,52.92594739667855,8.262572797410037,1.0006335017980987,12.110434925447851,3.618410722317071e-05
2,0,0,302,198.67549668874173,0,93.24415345434716,40,2943.9000000003725,-53.244153454347156,0,29,2,3,1,0.0,0.45014210096769436,52.92594739667855,8.262572797410037,-20.072106716256833,-242.92804684938548,0.05199013724479558
2,0,2,774,77.51937984496124,2,25.354902613380577,63,3308.4000000003725,37.645097386619426,0,30,2,3,1,0.0,0.45014210096769436,52.92594739667855,8.262572797410037,14.146690828445507,171.21411423908896,0.012851895805062812
2,0,3,463,129.58963282937364,2,62.42097125758927,59,6376.300000000745,-3.4209712575892723,1,31,2,3,1,0.0,0.45014210096769436,52.92594739667855,8.262572797410037,4.021469018714065,48.67090574953389,0.0006252526979926545
2,0,4,843,71.17437722419929,2,19.194949373496982,59,4661.0,39.80505062650302,1,32,2,3,1,0.0,0.45014210096769436,52.92594739667855,8.262572797410037,11.164632069909104,135.1229495177185,0.010263138624445039
2,0,0,358,167.5977653631285,1,80.97360155738828,56,7821.5,-24.973601557388278,1,33,2,3,1,0.0,0.45014210096769436,52.92594739667855,8.262572797410037,-2.044380149996421,-24.742658250917277,0.0004140025235700184
2,0,1,599,100.1669449081803,2,43.84378078116181,57,9626.39999999944,13.156219218838189,1,34,2,3,1,0.0,0.45014210096769436,52.92594739667855,8.262572797410037,5.0913767923707525,61.61975110182002,0.0009237557028078863
2,0,5,329,182.370820668693,0,87.06720173383901,60,3047.2999999998137,-27.067201733839013,1,35,2,3,1,0.0,0.45014210096769436,52.92594739667855,8.262572797410037,0.9486435488788771,11.481212597318795,4.5421699777577956e-05
2,0,0,550,109.0909090909091,2,50.0,57,5754.0,7.0,1,36,2,3,1,0.0,0.45014210096769436,52.92594739667855,8.262572797410037,4.074052603321448,49.30731266414365,0.0005501651375647327
2,0,5,425,141.1764705882353,2,68.5984388693479,55,5558.099999999628,-13.598438869347902,1,37,2,3,1,0.0,0.45014210096769436,52.92594739667855,8.262572797410037,-0.9993664982019013,-12.095100675120948,6.601827838853624e-05
2,0,2,710,84.50704225352112,1,31.580629700998873,58,7432.0999999996275,26.419370299001127,1,38,2,3,1,0.0,0.45014210096769436,52.92594739667855,8.262572797410037,8.117880362880427,98.24882106243028,0.00337233249650552
2,0,5,1000,60.0,2,6.875176187496734,60,7325.900000000372,53.124823812503266,1,39,2,3,1,0.0,0.45014210096769436,52.92594739667855,8.262572797410037,14.200492525847253,171.86526369000342,0.026201742964248972
2,0,4,329,182.370820668693,1,87.06720173383901,57,5452.200000000186,-30.067201733839013,1,40,2,3,1,0.0,0.45014210096769436,52.92594739667855,8.262572797410037,-2.051356451121123,-24.827090803534407,0.0005425509916274606
2,0,3,1000,60.0,0,6.875176187496734,42,5680.700000000186,35.124823812503266,1,41,2,3,1,0.0,0.45014210096769436,52.92594739667855,8.262572797410037,-3.7995074741527475,-45.98455671511579,0.0015589925370159958
2,0,4,463,129.58963282937364,0,62.42097125758927,60,5501.799999999814,-2.4209712575892723,1,42,2,3,1,0.0,0.45014210096769436,52.92594739667855,8.262572797410037,5.021469018714065,60.773673549818284,0.0009856004025250956
2,0,0,774,77.51937984496124,0,25.354902613380577,56,36629.09999999963,30.645097386619423,1,43,2,3,1,0.0,0.45014210096769436,52.92594739667855,8.262572797410037,7.146690828445507,86.49473963709812,0.0033450971375257603
2,0,2,463,129.58963282937364,0,62.42097125758927,66,4384.700000000186,3.5790287424107277,1,44,2,3,1,0.0,0.45014210096769436,52.92594739667855,8.262572797410037,11.021469018714065,133.3902803515247,0.00486221615792237
2,0,5,652,92.02453987730061,2,37.727982709047225,63,3122.100000000559,25.272017290952775,1,45,2,3,1,0.0,0.45014210096769436,52.92594739667855,8.262572797410037,12.102021328072887,146.4679540477556,0.006036145746245308
2,0,0,425,141.1764705882353,1,68.5984388693479,66,21974.5,-2.598438869347902,1,46,2,3,1,0.0,0.45014210096769436,52.92594739667855,8.262572797410037,10.000633501798099,121.03534512800746,0.004850775599683925
2,0,2,329,182.370820668693,2,87.06720173383901,60,3915.7999999998137,-27.067201733839013,1,47,2,3,1,0.0,0.45014210096769436,52.92594739667855,8.262572797410037,0.9486435488788771,11.481212597318795,4.5421699777577956e-05
2,0,1,652,92.02453987730061,2,37.727982709047225,56,5709.200000000186,18.272017290952775,1,48,2,3,1,0.0,0.45014210096769436,52.92594739667855,8.262572797410037,5.102021328072887,61.74857944576478,0.001087409483336494
2,0,0,918,65.359477124183,2,13.046873249910696,37,4120.800000000745,23.953126750089304,1,49,2,3,1,0.0,0.45014210096769436,52.92594739667855,8.262572797410037,-9.819389399387887,-118.84178984136571,0.009227287333532503
2,0,3,652,92.02453987730061,0,37.727982709047225,54,2884.4000000003725,16.272017290952775,1,50,2,3,1,0.0,0.45014210096769436,52.92594739667855,8.262572797410037,3.1020213280728868,37.54304384519598,0.00040802706847522163
2,0,2,918,65.359477124183,0,13.046873249910696,42,5447.700000000186,28.953126750089304,1,51,2,3,1,0.0,0.45014210096769436,52.92594739667855,8.262572797410037,-4.819389399387887,-58.327950839943696,0.0021145229321801805
2,0,4,550,109.0909090909091,1,50.0,56,4342.799999999814,6.0,1,52,2,3,1,0.0,0.45014210096769436,52.92594739667855,8.262572797410037,3.074052603321448,37.204544863859255,0.00031205392504952414
2,0,3,302,198.67549668874173,0,93.24415345434716,57,2338.5999999996275,-36.244153454347156,1,53,2,3,1,0.0,0.45014210096769436,52.92594739667855,8.262572797410037,-3.072106716256833,-37.18099424455065,0.0014367549167641099
2,0,5,550,109.0909090909091,2,50.0,52,5024.700000000186,2.0,1,54,2,3,1,0.0,0.45014210096769436,52.92594739667855,8.262572797410037,-0.9259473966785521,-11.206526337278348,3.021872983777511e-05
2,0,1,425,141.1764705882353,2,68.5984388693479,59,18912.39999999944,-9.598438869347902,1,55,2,3,1,0.0,0.45014210096769436,52.92594739667855,8.262572797410037,3.0006335017980987,36.315970526016656,0.0004062566239531504
2,0,3,599,100.1669449081803,0,43.84378078116181,56,3539.5999999996275,12.156219218838189,1,56,2,3,1,0.0,0.45014210096769436,52.92594739667855,8.262572797410037,4.0913767923707525,49.51698330153562,0.0005975754469496637
2,0,1,1000,60.0,1,6.875176187496734,41,6583.399999999441,34.124823812503266,1,57,2,3,1,0.0,0.45014210096769436,52.92594739667855,8.262572797410037,-4.7995074741527475,-58.087324515400184,0.0025674885113808952
2,0,4,710,84.50704225352112,0,31.580629700998873,56,4476.200000000186,24.419370299001127,1,58,2,3,1,0.0,0.45014210096769436,52.92594739667855,8.262572797410037,6.1178803628804275,74.04328546186149,0.0019308939909151667
2,0,1,358,167.5977653631285,1,80.97360155738828,67,2768.100000000559,-13.973601557388278,1,59,2,3,1,0.0,0.45014210096769436,52.92594739667855,8.262572797410037,8.955619850003579,108.38778755221112,0.0060667261908302
2,0,2,504,119.04761904761905,2,56.30039424560527,61,2331.0,4.699605754394732,1,60,2,3,1,0.0,0.45014210096769436,52.92594739667855,8.262572797410037,7.032903281187515,85.11759537407076,0.0017172981434722026
2,0,2,358,167.5977653631285,0,80.97360155738828,58,1780.0,-22.973601557388278,2,61,2,3,1,0.0,0.45014210096769436,52.92594739667855,8.262572797410037,-0.044380149996420926,-0.5371226503484751,6.17978205261867e-06
2,0,3,550,109.0909090909091,1,50.0,57,1173.3999999994412,7.0,2,62,2,3,1,0.0,0.45014210096769436,52.92594739667855,8.262572797410037,4.074052603321448,49.30731266414365,0.0005501651375647327
2,0,2,652,92.02453987730061,0,37.727982709047225,54,2421.4000000003725,16.272017290952775,2,63,2,3,1,0.0,0.45014210096769436,52.92594739667855,8.262572797410037,3.1020213280728868,37.54304384519598,0.00040802706847522163
2,0,4,599,100.1669449081803,0,43.84378078116181,53,3027.5999999996275,9.156219218838189,2,64,2,3,1,0.0,0.45014210096769436,52.92594739667855,8.262572797410037,1.0913767923707525,13.208679900682416,4.357817098621018e-05
2,0,5,710,84.50704225352112,1,31.580629700998873,47,2946.9000000003725,15.419370299001127,2,65,2,3,1,0.0,0.45014210096769436,52.92594739667855,8.262572797410037,-2.8821196371195725,-34.88162474069812,0.00038582308194511577
2,0,4,390,153.84615384615384,1,74.79787473312055,64,2598.600000000559,-10.797874733120551,2,66,2,3,1,0.0,0.45014210096769436,52.92594739667855,8.262572797410037,6.976167699252173,84.4309377998933,0.0028980567472915077
2,0,5,504,119.04761904761905,0,56.30039424560527,60,1819.5,3.6996057543947316,2,67,2,3,1,0.0,0.45014210096769436,52.92594739667855,8.262572797410037,6.032903281187515,73.01482757378636,0.0012596778348836445
2,0,0,843,71.17437722419929,1,19.194949373496982,52,4726.199999999255,32.80505062650302,2,68,2,3,1,0.0,0.45014210096769436,52.92594739667855,8.262572797410037,4.1646320699091035,50.40357491572767,0.001507831407774508
2,0,1,504,119.04761904761905,1,56.30039424560527,55,2615.9000000003725,-1.3003942456052684,2,69,2,3,1,0.0,0.45014210096769436,52.92594739667855,8.262572797410037,1.0329032811875152,12.500988572364363,3.306436154476576e-05
2,0,0,463,129.58963282937364,0,62.42097125758927,45,3668.900000000373,-17.420971257589272,2,70,2,3,1,0.0,0.45014210096769436,52.92594739667855,8.262572797410037,-9.978530981285935,-120.76784345444771,0.004153032475551622
2,0,3,918,65.359477124183,1,13.046873249910696,55,1951.2000000001865,41.953126750089304,2,71,2,3,1,0.0,0.45014210096769436,52.92594739667855,8.262572797410037,8.180610600612113,99.00803056375351,0.007091426993572357
2,0,5,463,129.58963282937364,1,62.42097125758927,58,2975.300000000745,-4.420971257589272,2,72,2,3,1,0.0,0.45014210096769436,52.92594739667855,8.262572797410037,3.0214690187140647,36.56813794924948,0.00034654925670795777
2,0,0,652,92.02453987730061,2,37.727982709047225,57,2776.399999999441,19.272017290952775,2,73,2,3,1,0.0,0.45014210096769436,52.92594739667855,8.262572797410037,6.102021328072887,73.85134724604919,0.0015495243960478142
2,0,1,329,182.370820668693,2,87.06720173383901,74,2041.7000000001865,-13.067201733839013,2,74,2,3,1,0.0,0.45014210096769436,52.92594739667855,8.262572797410037,14.948643548878877,180.91996180130042,0.021576740150409494
2,0,4,774,77.51937984496124,2,25.354902613380577,56,1580.2999999998135,30.645097386619423,2,75,2,3,1,0.0,0.45014210096769436,52.92594739667855,8.262572797410037,7.146690828445507,86.49473963709812,0.0033450971375257603
2,0,1,463,129.58963282937364,0,62.42097125758927,52,2540.100000000559,-10.420971257589272,2,76,2,3,1,0.0,0.45014210096769436,52.92594739667855,8.262572797410037,-2.9785309812859353,-36.048468852456914,0.00038885813720240515
2,0,4,302,198.67549668874173,0,93.24415345434716,58,2465.399999999441,-35.244153454347156,2,77,2,3,1,0.0,0.45014210096769436,52.92594739667855,8.262572797410037,-2.072106716256833,-25.078226444266242,0.0007140478141004691
2,0,1,774,77.51937984496124,1,25.354902613380577,45,4356.099999999628,19.645097386619423,2,78,2,3,1,0.0,0.45014210096769436,52.92594739667855,8.262572797410037,-3.8533091715544927,-46.635706166030275,0.0008657512578096344
2,0,4,1000,60.0,1,6.875176187496734,44,7571.900000000372,37.124823812503266,2,79,2,3,1,0.0,0.45014210096769436,52.92594739667855,8.262572797410037,-1.7995074741527475,-21.779021114546985,0.0002928019561072708
2,0,3,710,84.50704225352112,2,31.580629700998873,58,1790.699999999255,26.419370299001127,2,80,2,3,1,0.0,0.45014210096769436,52.92594739667855,8.262572797410037,8.117880362880427,98.24882106243028,0.00337233249650552
2,0,5,358,167.5977653631285,1,80.97360155738828,78,2509.0999999996275,-2.973601557388278,2,81,2,3,1,0.0,0.45014210096769436,52.92594739667855,8.262572797410037,19.95561985000358,241.51823335533953,0.031020169014015886
2,0,0,504,119.04761904761905,1,56.30039424560527,40,3883.0,-16.30039424560527,2,82,2,3,1,0.0,0.45014210096769436,52.92594739667855,8.262572797410037,-13.967096718812485,-169.04052843190163,0.006968104637567238
2,0,2,390,153.84615384615384,2,74.79787473312055,58,1595.6000000005588,-16.79787473312055,2,83,2,3,1,0.0,0.45014210096769436,52.92594739667855,8.262572797410037,0.9761676992521728,11.814330998186904,3.872051347680411e-05
2,0,0,329,182.370820668693,2,87.06720173383901,54,2452.600000000559,-33.06720173383901,2,84,2,3,1,0.0,0.45014210096769436,52.92594739667855,8.262572797410037,-5.051356451121123,-61.13539420438761,0.002843556723085598
2,0,5,843,71.17437722419929,1,19.194949373496982,60,4374.100000000559,40.80505062650302,2,85,2,3,1,0.0,0.45014210096769436,52.92594739667855,8.262572797410037,12.164632069909104,147.22571731800286,0.012151169237281009
2,0,2,550,109.0909090909091,1,50.0,56,1553.7000000001865,6.0,2,86,2,3,1,0.0,0.45014210096769436,52.92594739667855,8.262572797410037,3.074052603321448,37.204544863859255,0.00031205392504952414
2,0,3,329,182.370820668693,1,87.06720173383901,68,1524.3999999994412,-19.067201733839013,2,87,2,3,1,0.0,0.45014210096769436,52.92594739667855,8.262572797410037,8.948643548878877,108.303354999594,0.007538695070707136
2,0,1,843,71.17437722419929,0,19.194949373496982,40,1365.9000000003723,20.805050626503018,2,88,2,3,1,0.0,0.45014210096769436,52.92594739667855,8.262572797410037,-7.8353679300908965,-94.82963868768513,0.004660997834291643
2,0,3,425,141.1764705882353,0,68.5984388693479,58,2011.800000000745,-10.598438869347902,2,89,2,3,1,0.0,0.45014210096769436,52.92594739667855,8.262572797410037,2.0006335017980987,24.213202725732252,0.00017123202960124247
2,0,2,1000,60.0,2,6.875176187496734,19,5719.099999999628,12.124823812503266,2,90,2,3,1,0.0,0.45014210096769436,52.92594739667855,8.262572797410037,-26.799507474152747,-324.348216121657,0.08807198196698583
2,0,2,710,84.50704225352112,2,31.580629700998873,57,4670.9000000003725,25.419370299001127,3,91,2,3,1,0.0,0.45014210096769436,52.92594739667855,8.262572797410037,7.1178803628804275,86.14605326214588,0.002601700088496338
2,0,0,302,198.67549668874173,1,93.24415345434716,60,1123.199999999255,-33.244153454347156,3,92,2,3,1,0.0,0.45014210096769436,52.92594739667855,8.262572797410037,-0.07210671625683318,-0.8726908436974443,1.8974031964355345e-05
2,0,3,710,84.50704225352112,2,31.580629700998873,43,3517.600000000559,11.419370299001127,3,93,2,3,1,0.0,0.45014210096769436,52.92594739667855,8.262572797410037,-6.8821196371195725,-83.29269594183573,0.0022946089713089305
2,0,2,1000,60.0,1,6.875176187496734,37,1177.9000000003723,30.124823812503266,3,94,2,3,1,0.0,0.45014210096769436,52.92594739667855,8.262572797410037,-8.799507474152747,-106.49839571653779,0.009104143634910734
2,0,0,774,77.51937984496124,2,25.354902613380577,44,1809.6000000005588,18.645097386619423,3,95,2,3,1,0.0,0.45014210096769436,52.92594739667855,8.262572797410037,-4.853309171554493,-58.73847396631467,0.0013955021880942692
2,0,4,504,119.04761904761905,0,56.30039424560527,46,1998.9000000003723,-10.300394245605268,3,96,2,3,1,0.0,0.45014210096769436,52.92594739667855,8.262572797410037,-7.967096718812485,-96.42392163019524,0.0022834100018712103
2,0,1,774,77.51937984496124,1,25.354902613380577,45,2856.0999999996275,19.645097386619423,3,97,2,3,1,0.0,0.45014210096769436,52.92594739667855,8.262572797410037,-3.8533091715544927,-46.635706166030275,0.0008657512578096344
2,0,2,329,182.370820668693,1,87.06720173383901,47,2053.0,-40.06720173383901,3,98,2,3,1,0.0,0.45014210096769436,52.92594739667855,8.262572797410037,-12.051356451121123,-145.85476880637842,0.01522764513940891
2,0,1,843,71.17437722419929,0,19.194949373496982,66,2953.600000000559,46.80505062650302,3,99,2,3,1,0.0,0.45014210096769436,52.92594739667855,8.262572797410037,18.164632069909104,219.84232411970925,0.026825033219182805
2,0,2,463,129.58963282937364,1,62.42097125758927,57,2543.600000000559,-5.420971257589272,3,100,2,3,1,0.0,0.45014210096769436,52.92594739667855,8.262572797410037,2.0214690187140647,24.46537014896509,0.00014949007867100516
2,0,4,652,92.02453987730061,1,37.727982709047225,57,2409.600000000559,19.272017290952775,3,101,2,3,1,0.0,0.45014210096769436,52.92594739667855,8.262572797410037,6.102021328072887,73.85134724604919,0.0015495243960478142
2,0,0,504,119.04761904761905,2,56.30039424560527,56,2398.5999999996275,-0.3003942456052684,3,102,2,3,1,0.0,0.45014210096769436,52.92594739667855,8.262572797410037,2.032903281187515,24.603756372648764,0.0001368553135986867
2,0,4,843,71.17437722419929,1,19.194949373496982,57,2276.5,37.80505062650302,3,103,2,3,1,0.0,0.45014210096769436,52.92594739667855,8.262572797410037,9.164632069909104,110.91741391714966,0.006965031728042517
2,0,3,550,109.0909090909091,0,50.0,53,6544.200000000186,3.0,3,104,2,3,1,0.0,0.45014210096769436,52.92594739667855,8.262572797410037,0.07405260332144792,0.8962414630060536,8.608041334942875e-08
2,0,4,329,182.370820668693,2,87.06720173383901,54,3247.2999999998137,-33.06720173383901,3,105,2,3,1,0.0,0.45014210096769436,52.92594739667855,8.262572797410037,-5.051356451121123,-61.13539420438761,0.002843556723085598
2,0,3,463,129.58963282937364,2,62.42097125758927,55,2720.7999999998137,-7.420971257589272,3,106,2,3,1,0.0,0.45014210096769436,52.92594739667855,8.262572797410037,0.021469018714064703,0.2598345483962855,3.045123403325534e-07
2,0,5,918,65.359477124183,1,13.046873249910696,54,10102.400000000373,40.953126750089304,3,107,2,3,1,0.0,0.45014210096769436,52.92594739667855,8.262572797410037,7.180610600612113,86.90526276346911,0.0055049937834699735
2,0,4,463,129.58963282937364,0,62.42097125758927,55,2768.5,-7.420971257589272,3,108,2,3,1,0.0,0.45014210096769436,52.92594739667855,8.262572797410037,0.021469018714064703,0.2598345483962855,3.045123403325534e-07
2,0,1,599,100.1669449081803,0,43.84378078116181,55,4838.5,11.156219218838189,3,109,2,3,1,0.0,0.45014210096769436,52.92594739667855,8.262572797410037,3.0913767923707525,37.41421550125122,0.00034215243969331016
2,0,5,390,153.84615384615384,2,74.79787473312055,57,6226.600000000559,-17.79787473312055,3,110,2,3,1,0.0,0.45014210096769436,52.92594739667855,8.262572797410037,-0.023832300747827162,-0.2884368020974964,2.9329621465821075e-06
2,0,2,550,109.0909090909091,0,50.0,56,1809.1000000005588,6.0,3,111,2,3,1,0.0,0.45014210096769436,52.92594739667855,8.262572797410037,3.074052603321448,37.204544863859255,0.00031205392504952414
2,0,1,390,153.84615384615384,0,74.79787473312055,55,3782.7999999998137,-19.79787473312055,3,112,2,3,1,0.0,0.45014210096769436,52.92594739667855,8.262572797410037,-2.023832300747827,-24.493972402666298,0.00030915942031947696
2,0,5,504,119.04761904761905,0,56.30039424560527,58,2246.5,1.6996057543947316,3,113,2,3,1,0.0,0.45014210096769436,52.92594739667855,8.262572797410037,4.032903281187515,48.80929197321756,0.0005567348316273107
2,0,0,843,71.17437722419929,0,19.194949373496982,39,2296.2000000001863,19.805050626503018,3,114,2,3,1,0.0,0.45014210096769436,52.92594739667855,8.262572797410037,-8.835367930090896,-106.93240648796953,0.005959329416585152
2,0,5,774,77.51937984496124,2,25.354902613380577,45,3427.5,19.645097386619423,3,115,2,3,1,0.0,0.45014210096769436,52.92594739667855,8.262572797410037,-3.8533091715544927,-46.635706166030275,0.0008657512578096344
2,0,3,329,182.370820668693,2,87.06720173383901,61,3174.399999999441,-26.067201733839013,3,116,2,3,1,0.0,0.45014210096769436,52.92594739667855,8.262572797410037,1.9486435488788771,23.583980397603195,0.00028057336685167366
2,0,0,390,153.84615384615384,2,74.79787473312055,59,3496.0,-15.797874733120551,3,117,2,3,1,0.0,0.45014210096769436,52.92594739667855,8.262572797410037,1.9761676992521728,23.917098798471304,0.00020044191841813903
2,0,5,358,167.5977653631285,1,80.97360155738828,61,2480.7999999998137,-19.973601557388278,3,118,2,3,1,0.0,0.45014210096769436,52.92594739667855,8.262572797410037,2.955619850003579,35.771180750504726,0.0005907712372925616
2,0,3,843,71.17437722419929,0,19.194949373496982,60,4421.200000000186,40.80505062650302,3,119,2,3,1,0.0,0.45014210096769436,52.92594739667855,8.262572797410037,12.164632069909104,147.22571731800286,0.012151169237281009
2,0,1,329,182.370820668693,1,87.06720173383901,58,1598.0,-29.067201733839013,3,120,2,3,1,0.0,0.45014210096769436,52.92594739667855,8.262572797410037,-1.0513564511211229,-12.724323003250007,0.00017641051216547157
2,0,5,550,109.0909090909091,1,50.0,57,3380.0999999996275,7.0,4,121,2,3,1,0.0,0.45014210096769436,52.92594739667855,8.262572797410037,4.074052603321448,49.30731266414365,0.0005501651375647327
2,0,3,390,153.84615384615384,0,74.79787473312055,55,4593.0,-19.79787473312055,4,122,2,3,1,0.0,0.45014210096769436,52.92594739667855,8.262572797410037,-2.023832300747827,-24.493972402666298,0.00030915942031947696
2,0,1,1000,60.0,2,6.875176187496734,41,2266.0,34.124823812503266,4,123,2,3,1,0.0,0.45014210096769436,52.92594739667855,8.262572797410037,-4.7995074741527475,-58.087324515400184,0.0025674885113808952
2,0,3,599,100.1669449081803,1,43.84378078116181,42,1859.5,-1.8437807811618114,4,124,2,3,1,0.0,0.45014210096769436,52.92594739667855,8.262572797410037,-9.908623207629248,-119.92176590244598,0.003460562968130796
2,0,1,463,129.58963282937364,2,62.42097125758927,54,3001.2000000001863,-8.420971257589272,4,125,2,3,1,0.0,0.45014210096769436,52.92594739667855,8.262572797410037,-0.9785309812859353,-11.842933251888114,4.817812404661256e-05
2,0,3,918,65.359477124183,2,13.046873249910696,42,2660.0,28.953126750089304,4,126,2,3,1,0.0,0.45014210096769436,52.92594739667855,8.262572797410037,-4.819389399387887,-58.327950839943696,0.0021145229321801805
2,0,1,302,198.67549668874173,2,93.24415345434716,57,2187.199999999255,-36.244153454347156,4,127,2,3,1,0.0,0.45014210096769436,52.92594739667855,8.262572797410037,-3.072106716256833,-37.18099424455065,0.0014367549167641099
2,0,5,1000,60.0,0,6.875176187496734,43,2430.300000000745,36.124823812503266,4,128,2,3,1,0.0,0.45014210096769436,52.92594739667855,8.262572797410037,-2.7995074741527475,-33.88178891483138,0.0008007636852581212
2,0,3,302,198.67549668874173,1,93.24415345434716,44,4898.399999999441,-49.244153454347156,4,129,2,3,1,0.0,0.45014210096769436,52.92594739667855,8.262572797410037,-16.072106716256833,-194.51697564824786,0.033592273421523544
2,0,1,652,92.02453987730061,0,37.727982709047225,47,2551.2999999998137,9.272017290952775,4,130,2,3,1,0.0,0.45014210096769436,52.92594739667855,8.262572797410037,-3.8979786719271132,-47.17633075679481,0.0006010864273551312
2,0,4,425,141.1764705882353,1,68.5984388693479,42,4347.4000000003725,-26.598438869347902,4,131,2,3,1,0.0,0.45014210096769436,52.92594739667855,8.262572797410037,-13.999366498201901,-169.43108207881815,0.010007665908412454
2,0,0,550,109.0909090909091,0,50.0,37,1474.6000000005588,-13.0,4,132,2,3,1,0.0,0.45014210096769436,52.92594739667855,8.262572797410037,-15.925947396678552,-192.74804334154436,0.008529524329393192
2,0,4,302,198.67549668874173,0,93.24415345434716,82,1403.0,-11.244153454347156,4,133,2,3,1,0.0,0.45014210096769436,52.92594739667855,8.262572797410037,21.927893283743167,265.3882007625594,0.058403119669289905
2,0,1,550,109.0909090909091,2,50.0,42,3164.0999999996275,-8.0,4,134,2,3,1,0.0,0.45014210096769436,52.92594739667855,8.262572797410037,-10.925947396678552,-132.23420434012235,0.004019898325752004
2,0,2,358,167.5977653631285,0,80.97360155738828,41,2155.5999999996275,-39.97360155738828,4,135,2,3,1,0.0,0.45014210096769436,52.92594739667855,8.262572797410037,-17.04438014999642,-206.2841752551833,0.023810207732723236
2,0,4,1000,60.0,2,6.875176187496734,43,2141.2000000001863,36.124823812503266,4,136,2,3,1,0.0,0.45014210096769436,52.92594739667855,8.262572797410037,-2.7995074741527475,-33.88178891483138,0.0008007636852581212
2,0,5,425,141.1764705882353,0,68.5984388693479,46,5340.5,-22.598438869347902,4,137,2,3,1,0.0,0.45014210096769436,52.92594739667855,8.262572797410037,-9.999366498201901,-121.02001087768055,0.00514911731133758
2,0,0,358,167.5977653631285,0,80.97360155738828,41,2017.6000000005588,-39.97360155738828,4,138,2,3,1,0.0,0.45014210096769436,52.92594739667855,8.262572797410037,-17.04438014999642,-206.2841752551833,0.023810207732723236
2,0,5,710,84.50704225352112,1,31.580629700998873,47,2927.7999999998137,15.419370299001127,4,139,2,3,1,0.0,0.45014210096769436,52.92594739667855,8.262572797410037,-2.8821196371195725,-34.88162474069812,0.00038582308194511577
2,0,2,843,71.17437722419929,0,19.194949373496982,41,2792.7000000001863,21.805050626503018,4,140,2,3,1,0.0,0.45014210096769436,52.92594739667855,8.262572797410037,-6.8353679300908965,-82.72687088740074,0.0035219843617546073
2,0,4,774,77.51937984496124,2,25.354902613380577,45,3027.7999999998137,19.645097386619423,4,141,2,3,1,0.0,0.45014210096769436,52.92594739667855,8.262572797410037,-3.8533091715544927,-46.635706166030275,0.0008657512578096344
2,0,0,463,129.58963282937364,1,62.42097125758927,44,2561.0999999996275,-18.420971257589272,4,142,2,3,1,0.0,0.45014210096769436,52.92594739667855,8.262572797410037,-10.978530981285935,-132.87061125473213,0.005017348719735343
2,0,2,652,92.02453987730061,0,37.727982709047225,41,1778.2999999998135,3.2720172909527747,4,143,2,3,1,0.0,0.45014210096769436,52.92594739667855,8.262572797410037,-9.897978671927113,-119.79293755850122,0.003949582215121407
2,0,5,329,182.370820668693,0,87.06720173383901,43,2481.699999999255,-44.06720173383901,4,144,2,3,1,0.0,0.45014210096769436,52.92594739667855,8.262572797410037,-16.051356451121123,-194.265840007516,0.02671374283285828
2,0,2,504,119.04761904761905,2,56.30039424560527,45,3383.5999999996275,-11.300394245605268,4,145,2,3,1,0.0,0.45014210096769436,52.92594739667855,8.262572797410037,-8.967096718812485,-108.52668943047965,0.0028872777628865635
2,0,3,652,92.02453987730061,1,37.727982709047225,39,3100.7000000001863,1.2720172909527747,4,146,2,3,1,0.0,0.45014210096769436,52.92594739667855,8.262572797410037,-11.897978671927113,-143.99847315907002,0.005718673905873813
2,0,4,550,109.0909090909091,2,50.0,40,6817.0,-10.0,4,147,2,3,1,0.0,0.45014210096769436,52.92594739667855,8.262572797410037,-12.925947396678552,-156.43973994069117,0.005622565830753756
2,0,0,710,84.50704225352112,0,31.580629700998873,41,1697.5,9.419370299001127,4,148,2,3,1,0.0,0.45014210096769436,52.92594739667855,8.262572797410037,-8.882119637119573,-107.49823154240453,0.0038479597785589024
2,0,2,425,141.1764705882353,0,68.5984388693479,39,4934.0,-29.598438869347902,4,149,2,3,1,0.0,0.45014210096769436,52.92594739667855,8.262572797410037,-16.9993664982019,-205.73938547967137,0.014701332411943897
2,0,0,918,65.359477124183,1,13.046873249910696,42,2160.600000000559,28.953126750089304,4,150,2,3,1,0.0,0.45014210096769436,52.92594739667855,8.262572797410037,-4.819389399387887,-58.327950839943696,0.0021145229321801805
2,0,5,843,71.17437722419929,2,19.194949373496982,39,2347.5999999996275,19.805050626503018,5,151,2,3,1,0.0,0.45014210096769436,52.92594739667855,8.262572797410037,-8.835367930090896,-106.93240648796953,0.005959329416585152
2,0,2,774,77.51937984496124,1,25.354902613380577,43,2002.5,17.645097386619423,5,152,2,3,1,0.0,0.45014210096769436,52.92594739667855,8.262572797410037,-5.853309171554493,-70.84124176659907,0.002051110786755376
2,0,3,1000,60.0,1,6.875176187496734,40,1432.0999999996277,33.124823812503266,5,153,2,3,1,0.0,0.45014210096769436,52.92594739667855,8.262572797410037,-5.7995074741527475,-70.19009231568458,0.0038262516083528183
2,0,5,652,92.02453987730061,0,37.727982709047225,42,2311.9000000003725,4.272017290952775,5,154,2,3,1,0.0,0.45014210096769436,52.92594739667855,8.262572797410037,-8.897978671927113,-107.69016975821681,0.003187460075025888
2,0,2,599,100.1669449081803,1,43.84378078116181,45,3163.0,1.1562192188381886,5,155,2,3,1,0.0,0.45014210096769436,52.92594739667855,8.262572797410037,-6.9086232076292475,-83.61346250159278,0.0016795710402325713
2,0,3,425,141.1764705882353,1,68.5984388693479,41,1512.0,-27.598438869347902,5,156,2,3,1,0.0,0.45014210096769436,52.92594739667855,8.262572797410037,-14.999366498201901,-181.53384987910255,0.011472244737615763
2,0,0,329,182.370820668693,2,87.06720173383901,46,4070.200000000186,-41.06720173383901,5,157,2,3,1,0.0,0.45014210096769436,52.92594739667855,8.262572797410037,-13.051356451121123,-157.9575366066628,0.017798523489503212
2,0,2,390,153.84615384615384,2,74.79787473312055,42,1883.6000000005588,-32.79787473312055,5,158,2,3,1,0.0,0.45014210096769436,52.92594739667855,8.262572797410037,-15.023832300747827,-181.8299538063635,0.014578182125526808
2,0,3,358,167.5977653631285,0,80.97360155738828,41,5846.800000000745,-39.97360155738828,5,159,2,3,1,0.0,0.45014210096769436,52.92594739667855,8.262572797410037,-17.04438014999642,-206.2841752551833,0.023810207732723236
2,0,0,1000,60.0,2,6.875176187496734,43,1298.7000000001865,36.124823812503266,5,160,2,3,1,0.0,0.45014210096769436,52.92594739667855,8.262572797410037,-2.7995074741527475,-33.88178891483138,0.0008007636852581212
2,0,5,302,198.67549668874173,2,93.24415345434716,60,1550.7000000001865,-33.244153454347156,5,161,2,3,1,0.0,0.45014210096769436,52.92594739667855,8.262572797410037,-0.07210671625683318,-0.8726908436974443,1.8974031964355345e-05
2,0,4,599,100.1669449081803,1,43.84378078116181,61,1743.2999999998135,17.15621921883819,5,162,2,3,1,0.0,0.45014210096769436,52.92594739667855,8.262572797410037,9.091376792370752,110.03082230295762,0.0029360492122594666
2,0,0,652,92.02453987730061,1,37.727982709047225,61,2115.0,23.272017290952775,5,163,2,3,1,0.0,0.45014210096769436,52.92594739667855,8.262572797410037,10.102021328072887,122.26241844718679,0.004214142082097652
2,0,3,504,119.04761904761905,2,56.30039424560527,59,2082.9000000003725,2.6996057543947316,5,164,2,3,1,0.0,0.45014210096769436,52.92594739667855,8.262572797410037,5.032903281187515,60.91205977350196,0.0008728233976020137
2,0,4,710,84.50704225352112,0,31.580629700998873,53,11614.200000000186,21.419370299001127,5,165,2,3,1,0.0,0.45014210096769436,52.92594739667855,8.262572797410037,3.1178803628804275,37.73498206100828,0.000517433560739719
2,0,1,918,65.359477124183,1,13.046873249910696,57,3276.300000000745,43.953126750089304,5,166,2,3,1,0.0,0.45014210096769436,52.92594739667855,8.262572797410037,10.180610600612113,123.2135661643223,0.01086609063185169
2,0,5,599,100.1669449081803,2,43.84378078116181,58,4012.2999999998137,14.156219218838189,5,167,2,3,1,0.0,0.45014210096769436,52.92594739667855,8.262572797410037,6.0913767923707525,73.72251890210441,0.0013206932072679777
2,0,1,710,84.50704225352112,2,31.580629700998873,60,1685.4000000003723,28.419370299001127,5,168,2,3,1,0.0,0.45014210096769436,52.92594739667855,8.262572797410037,10.117880362880427,122.45435666299909,0.005213076243807917
2,0,0,425,141.1764705882353,0,68.5984388693479,58,4098.5,-10.598438869347902,5,169,2,3,1,0.0,0.45014210096769436,52.92594739667855,8.262572797410037,2.0006335017980987,24.213202725732252,0.00017123202960124247
2,0,1,358,167.5977653631285,0,80.97360155738828,59,4348.4000000003725,-21.973601557388278,5,170,2,3,1,0.0,0.45014210096769436,52.92594739667855,8.262572797410037,0.9556198500035791,11.565645149935925,4.1533524797127315e-05
2,0,5,463,129.58963282937364,1,62.42097125758927,61,3364.399999999441,-1.4209712575892723,5,171,2,3,1,0.0,0.45014210096769436,52.92594739667855,8.262572797410037,6.021469018714065,72.87644135010268,0.001427592370305281
2,0,2,302,198.67549668874173,2,93.24415345434716,60,1530.0,-33.244153454347156,5,172,2,3,1,0.0,0.45014210096769436,52.92594739667855,8.262572797410037,-0.07210671625683318,-0.8726908436974443,1.8974031964355345e-05
2,0,1,425,141.1764705882353,1,68.5984388693479,59,1770.199999999255,-9.598438869347902,5,173,2,3,1,0.0,0.45014210096769436,52.92594739667855,8.262572797410037,3.0006335017980987,36.315970526016656,0.0004062566239531504
2,0,4,918,65.359477124183,0,13.046873249910696,59,3414.2000000001863,45.953126750089304,5,174,2,3,1,0.0,0.45014210096769436,52.92594739667855,8.262572797410037,12.180610600612113,147.4191017648911,0.01544315056089712
2,0,1,504,119.04761904761905,1,56.30039424560527,59,7764.5999999996275,2.6996057543947316,5,175,2,3,1,0.0,0.45014210096769436,52.92594739667855,8.262572797410037,5.032903281187515,60.91205977350196,0.0008728233976020137
2,0,4,390,153.84615384615384,2,74.79787473312055,58,3990.599999999628,-16.79787473312055,5,176,2,3,1,0.0,0.45014210096769436,52.92594739667855,8.262572797410037,0.9761676992521728,11.814330998186904,3.872051347680411e-05
2,0,2,918,65.359477124183,2,13.046873249910696,62,8898.799999999814,48.953126750089304,5,177,2,3,1,0.0,0.45014210096769436,52.92594739667855,8.262572797410037,15.180610600612113,183.7274051657443,0.023813233499651684
2,0,3,774,77.51937984496124,0,25.354902613380577,60,1610.1000000005588,34.645097386619426,5,178,2,3,1,0.0,0.45014210096769436,52.92594739667855,8.262572797410037,11.146690828445507,134.90581083823574,0.008022407508716675
2,0,4,358,167.5977653631285,1,80.97360155738828,59,10467.299999999814,-21.973601557388278,5,179,2,3,1,0.0,0.45014210096769436,52.92594739667855,8.262572797410037,0.9556198500035791,11.565645149935925,4.1533524797127315e-05
2,0,0,599,100.1669449081803,1,43.84378078116181,61,1713.5,17.15621921883819,5,180,2,3,1,0.0,0.45014210096769436,52.92594739667855,8.262572797410037,9.091376792370752,110.03082230295762,0.0029360492122594666
3,0,1,918,65.359477124183,0,13.046873249910696,0,2947.9000000953674,-13.046873249910696,0,1,6,0,0,33.0,0.9417957826943955,50.43357595408743,60.637581181218465,-5.618611489919516,-9.265889866431204,0.0024143225673219516
3,0,0,302,198.67549668874173,1,93.24415345434716,100,4912.199999928474,6.755846545652844,0,2,6,0,0,33.0,0.9417957826943955,50.43357595408743,60.637581181218465,-2.8779932681083125,-4.746220433013785,0.0006964557860627639
3,0,4,425,141.1764705882353,2,68.5984388693479,50,6333.200000047684,-18.598438869347902,0,3,6,0,0,33.0,0.9417957826943955,50.43357595408743,60.637581181218465,-22.988862889767674,-37.91190618416044,0.01693877611529294
3,0,1,302,198.67549668874173,0,93.24415345434716,95,3466.600000023842,1.7558465456528438,0,4,6,0,0,33.0,0.9417957826943955,50.43357595408743,60.637581181218465,-7.8779932681083125,-12.9919319251283,0.004996881486762251
3,0,0,463,129.58963282937364,2,62.42097125758927,37,2046.899999976158,-25.420971257589272,0,5,6,0,0,33.0,0.9417957826943955,50.43357595408743,60.637581181218465,-28.49712901372044,-46.99582084014092,0.02122250126991472
3,0,3,774,77.51937984496124,0,25.354902613380577,3,2173.599999904633,-22.354902613380577,0,6,6,0,0,33.0,0.9417957826943955,50.43357595408743,60.637581181218465,-17.545194084084027,-28.934521698102255,0.012863826667579955
3,0,0,918,65.359477124183,2,13.046873249910696,1,2854.9000000953674,-12.046873249910696,0,7,6,0,0,33.0,0.9417957826943955,50.43357595408743,60.637581181218465,-4.618611489919516,-7.6167475680083,0.0016975553124264449
3,0,3,425,141.1764705882353,2,68.5984388693479,86,3179.0,17.401561130652098,0,8,6,0,0,33.0,0.9417957826943955,50.43357595408743,60.637581181218465,13.011137110232326,21.45721655906407,0.005112444778575754
3,0,0,652,92.02453987730061,0,37.727982709047225,24,2073.100000023842,-13.727982709047225,0,9,6,0,0,33.0,0.9417957826943955,50.43357595408743,60.637581181218465,-11.55066705933811,-19.048693622554566,0.0036755291073238398
3,0,3,918,65.359477124183,1,13.046873249910696,0,2697.5,-13.046873249910696,0,10,6,0,0,33.0,0.9417957826943955,50.43357595408743,60.637581181218465,-5.618611489919516,-9.265889866431204,0.0024143225673219494
3,0,2,425,141.1764705882353,0,68.5984388693479,79,3717.600000023842,10.401561130652098,0,11,6,0,0,33.0,0.9417957826943955,50.43357595408743,60.637581181218465,6.011137110232326,9.913220470103747,0.0010427447862159389
3,0,1,599,100.1669449081803,0,43.84378078116181,32,1990.5,-11.843780781161811,0,12,6,0,0,33.0,0.9417957826943955,50.43357595408743,60.637581181218465,-10.967611101053876,-18.087151379400538,0.0028656317790558715
3,0,2,652,92.02453987730061,1,37.727982709047225,47,2448.6999999284744,9.272017290952775,0,13,6,0,0,33.0,0.9417957826943955,50.43357595408743,60.637581181218465,11.44933294066189,18.881579241172204,0.0031110003380305047
3,0,1,463,129.58963282937364,2,62.42097125758927,52,2666.200000047684,-10.420971257589272,0,14,6,0,0,33.0,0.9417957826943955,50.43357595408743,60.637581181218465,-13.49712901372044,-22.258686363797377,0.004865278539008262
3,0,4,302,198.67549668874173,1,93.24415345434716,100,3546.899999976158,6.755846545652844,0,15,6,0,0,33.0,0.9417957826943955,50.43357595408743,60.637581181218465,-2.8779932681083125,-4.746220433013785,0.0006964557860627648
3,0,1,652,92.02453987730061,0,37.727982709047225,25,2368.200000047684,-12.727982709047225,0,16,6,0,0,33.0,0.9417957826943955,50.43357595408743,60.637581181218465,-10.55066705933811,-17.399551324131664,0.003087487510034702
3,0,3,504,119.04761904761905,1,56.30039424560527,45,2838.3000000715256,-11.300394245605268,0,17,6,0,0,33.0,0.9417957826943955,50.43357595408743,60.637581181218465,-13.074389304918853,-21.5615284287897,0.003983715672778708
3,0,5,302,198.67549668874173,1,93.24415345434716,95,2866.2999999523163,1.7558465456528438,0,18,6,0,0,33.0,0.9417957826943955,50.43357595408743,60.637581181218465,-7.8779932681083125,-12.9919319251283,0.004996881486762251
3,0,2,1000,60.0,2,6.875176187496734,0,3387.200000047684,-6.875176187496734,0,19,6,0,0,33.0,0.9417957826943955,50.43357595408743,60.637581181218465,1.8661241430407713,3.0775042583967283,0.00012380673760130527
3,0,5,504,119.04761904761905,2,56.30039424560527,48,4437.799999952316,-8.300394245605268,0,20,6,0,0,33.0,0.9417957826943955,50.43357595408743,60.637581181218465,-10.074389304918853,-16.61410153352099,0.0023989353395778763
3,0,3,329,182.370820668693,1,87.06720173383901,92,3809.6999999284735,4.932798266160987,0,21,6,0,0,33.0,0.9417957826943955,50.43357595408743,60.637581181218465,-3.386885040012743,-5.585455379380761,0.0007811810700120068
3,0,5,918,65.359477124183,1,13.046873249910696,8,2372.5,-5.046873249910696,0,22,6,0,0,33.0,0.9417957826943955,50.43357595408743,60.637581181218465,2.381388510080484,3.9272485209520225,0.0002056097986797368
3,0,0,504,119.04761904761905,0,56.30039424560527,52,5573.399999976158,-4.300394245605268,0,23,6,0,0,33.0,0.9417957826943955,50.43357595408743,60.637581181218465,-6.074389304918853,-10.017532339829378,0.0009077317454225172
3,0,5,774,77.51937984496124,2,25.354902613380577,18,2548.0,-7.3549026133805775,0,24,6,0,0,33.0,0.9417957826943955,50.43357595408743,60.637581181218465,-2.5451940840840273,-4.197387221758708,0.0003666364301008713
3,0,4,918,65.359477124183,0,13.046873249910696,6,3441.6999999284744,-7.046873249910696,0,25,6,0,0,33.0,0.9417957826943955,50.43357595408743,60.637581181218465,0.3813885100804839,0.6289639241062158,2.3397185856135104e-06
3,0,5,425,141.1764705882353,0,68.5984388693479,84,5226.099999904633,15.401561130652098,0,26,6,0,0,33.0,0.9417957826943955,50.43357595408743,60.637581181218465,11.011137110232326,18.158931962218265,0.0036359164842589744
3,0,4,504,119.04761904761905,0,56.30039424560527,49,3731.6999999284735,-7.300394245605268,0,27,6,0,0,33.0,0.9417957826943955,50.43357595408743,60.637581181218465,-9.074389304918853,-14.964959235098089,0.0019595090642412776
3,0,2,329,182.370820668693,1,87.06720173383901,82,2479.4000000953674,-5.067201733839013,0,28,6,0,0,33.0,0.9417957826943955,50.43357595408743,60.637581181218465,-13.386885040012743,-22.076878363609794,0.011504682992274171
3,0,4,774,77.51937984496124,1,25.354902613380577,8,4330.5,-17.354902613380577,0,29,6,0,0,33.0,0.9417957826943955,50.43357595408743,60.637581181218465,-12.545194084084027,-20.68881020598774,0.006723200492414505
3,0,2,504,119.04761904761905,0,56.30039424560527,49,5192.5,-7.300394245605268,0,30,6,0,0,33.0,0.9417957826943955,50.43357595408743,60.637581181218465,-9.074389304918853,-14.964959235098089,0.0019595090642412776
3,0,5,329,182.370820668693,2,87.06720173383901,100,1915.6000000238416,12.932798266160987,1,31,6,0,0,33.0,0.9417957826943955,50.43357595408743,60.637581181218465,4.613114959987257,7.607683008002464,0.0012601504805160625
3,0,3,710,84.50704225352112,2,31.580629700998873,16,3930.600000023842,-15.580629700998873,1,32,6,0,0,33.0,0.9417957826943955,50.43357595408743,60.637581181218465,-12.09545471783533,-19.947125993841105,0.004942352379681102
3,0,0,550,109.0909090909091,2,50.0,50,8163.700000047684,0.0,1,33,6,0,0,33.0,0.9417957826943955,50.43357595408743,60.637581181218465,-0.43357595408743066,-0.7150284454646485,1.3121318636332892e-05
3,0,1,390,153.84615384615384,0,74.79787473312055,87,1970.3000000715256,12.202125266879449,1,34,6,0,0,33.0,0.9417957826943955,50.43357595408743,60.637581181218465,6.492761200886889,10.707487129941654,0.001560231888662527
3,0,4,1000,60.0,2,6.875176187496734,0,1932.2999999523165,-6.875176187496734,1,35,6,0,0,33.0,0.9417957826943955,50.43357595408743,60.637581181218465,1.8661241430407713,3.0775042583967283,0.00012380673760130527
3,0,2,774,77.51937984496124,0,25.354902613380577,15,3676.399999976158,-10.354902613380577,1,36,6,0,0,33.0,0.9417957826943955,50.43357595408743,60.637581181218465,-5.545194084084027,-9.144814117027417,0.001444149288472544
3,0,4,550,109.0909090909091,1,50.0,53,2781.099999904633,3.0,1,37,6,0,0,33.0,0.9417957826943955,50.43357595408743,60.637581181218465,2.5664240459125693,4.232398449804061,0.00010282684876240909
3,0,2,843,71.17437722419929,0,19.194949373496982,13,2091.2999999523163,-6.194949373496982,1,38,6,0,0,33.0,0.9417957826943955,50.43357595408743,60.637581181218465,-0.0747007909650037,-0.12319223410603504,1.876216619920242e-05
3,0,1,774,77.51937984496124,2,25.354902613380577,2,2005.1000000238416,-23.354902613380577,1,39,6,0,0,33.0,0.9417957826943955,50.43357595408743,60.637581181218465,-18.545194084084027,-30.58366399652516,0.014328939434133735
3,0,3,1000,60.0,2,6.875176187496734,0,2381.399999976158,-6.875176187496734,1,40,6,0,0,33.0,0.9417957826943955,50.43357595408743,60.637581181218465,1.8661241430407713,3.0775042583967283,0.00012380673760130527
3,0,0,710,84.50704225352112,2,31.580629700998873,47,4684.5,15.419370299001127,1,41,6,0,0,33.0,0.9417957826943955,50.43357595408743,60.637581181218465,18.90454528216467,31.176285257268894,0.010652494255177922
3,0,1,1000,60.0,2,6.875176187496734,0,2365.399999976158,-6.875176187496734,1,42,6,0,0,33.0,0.9417957826943955,50.43357595408743,60.637581181218465,1.8661241430407713,3.0775042583967283,0.00012380673760130527
3,0,4,463,129.58963282937364,1,62.42097125758927,77,2523.9000000953674,14.579028742410728,1,43,6,0,0,33.0,0.9417957826943955,50.43357595408743,60.637581181218465,11.50287098627956,18.9698710967752,0.003225666181217591
3,0,0,1000,60.0,0,6.875176187496734,9,3623.799999952316,2.1248238125032657,1,44,6,0,0,33.0,0.9417957826943955,50.43357595408743,60.637581181218465,10.866124143040771,17.919784944202856,0.008260637629989005
3,0,2,550,109.0909090909091,1,50.0,84,3866.899999976158,34.0,1,45,6,0,0,33.0,0.9417957826943955,50.43357595408743,60.637581181218465,33.56642404591257,55.35580970091406,0.02321200243641345
3,0,0,390,153.84615384615384,0,74.79787473312055,100,2731.5,25.20212526687945,1,46,6,0,0,33.0,0.9417957826943955,50.43357595408743,60.637581181218465,19.49276120088689,32.1463370094394,0.014695762231003117
3,0,5,843,71.17437722419929,2,19.194949373496982,6,3752.700000047684,-13.194949373496982,1,47,6,0,0,33.0,0.9417957826943955,50.43357595408743,60.637581181218465,-7.074700790965004,-11.667188323066357,0.0028974987660035033
3,0,0,329,182.370820668693,2,87.06720173383901,100,2289.0,12.932798266160987,1,48,6,0,0,33.0,0.9417957826943955,50.43357595408743,60.637581181218465,4.613114959987257,7.607683008002464,0.0012601504805160625
3,0,1,504,119.04761904761905,2,56.30039424560527,50,6356.399999976158,-6.300394245605268,1,49,6,0,0,33.0,0.9417957826943955,50.43357595408743,60.637581181218465,-8.074389304918853,-13.315816936675184,0.0015644997067698512
3,0,2,302,198.67549668874173,0,93.24415345434716,100,2473.599999904633,6.755846545652844,1,50,6,0,0,33.0,0.9417957826943955,50.43357595408743,60.637581181218465,-2.8779932681083125,-4.746220433013785,0.0006964557860627648
3,0,5,599,100.1669449081803,1,43.84378078116181,48,3385.899999976158,4.156219218838189,1,51,6,0,0,33.0,0.9417957826943955,50.43357595408743,60.637581181218465,5.032388898946124,8.299125395365914,0.00047808577475977137
3,0,4,329,182.370820668693,2,87.06720173383901,100,2068.3000000715256,12.932798266160987,1,52,6,0,0,33.0,0.9417957826943955,50.43357595408743,60.637581181218465,4.613114959987257,7.607683008002464,0.0012601504805160625
3,0,5,652,92.02453987730061,0,37.727982709047225,48,8285.0,10.272017290952775,1,53,6,0,0,33.0,0.9417957826943955,50.43357595408743,60.637581181218465,12.44933294066189,20.53072153959511,0.0037011794651374435
3,0,1,358,167.5977653631285,1,80.97360155738828,79,1689.899999976158,-1.9736015573882781,1,54,6,0,0,33.0,0.9417957826943955,50.43357595408743,60.637581181218465,-8.996861532304365,-14.837104905977021,0.004209443327440829
3,0,3,463,129.58963282937364,0,62.42097125758927,52,3940.8000000715256,-10.420971257589272,1,55,6,0,0,33.0,0.9417957826943955,50.43357595408743,60.637581181218465,-13.49712901372044,-22.258686363797377,0.004865278539008262
3,0,4,710,84.50704225352112,2,31.580629700998873,22,2617.6999999284744,-9.580629700998873,1,56,6,0,0,33.0,0.9417957826943955,50.43357595408743,60.637581181218465,-6.095454717835331,-10.052272203303685,0.0013482663072080937
3,0,3,302,198.67549668874173,0,93.24415345434716,100,2194.700000047684,6.755846545652844,1,57,6,0,0,33.0,0.9417957826943955,50.43357595408743,60.637581181218465,-2.8779932681083125,-4.746220433013785,0.0006964557860627648
3,0,2,390,153.84615384615384,1,74.79787473312055,50,7745.400000095367,-24.79787473312055,1,58,6,0,0,33.0,0.9417957826943955,50.43357595408743,60.637581181218465,-30.50723879911311,-50.31077791170576,0.0372898792893338
3,0,3,599,100.1669449081803,0,43.84378078116181,48,2038.700000047684,4.156219218838189,1,59,6,0,0,33.0,0.9417957826943955,50.43357595408743,60.637581181218465,5.032388898946124,8.299125395365914,0.00047808577475977137
3,0,5,463,129.58963282937364,1,62.42097125758927,55,2549.899999976158,-7.420971257589272,1,60,6,0,0,33.0,0.9417957826943955,50.43357595408743,60.637581181218465,-10.49712901372044,-17.311259468528668,0.002977444971287855
3,0,1,425,141.1764705882353,1,68.5984388693479,55,2230.099999904633,-13.598438869347902,2,61,6,0,0,33.0,0.9417957826943955,50.43357595408743,60.637581181218465,-17.988862889767674,-29.666194692045927,0.010432998643416387
3,0,5,1000,60.0,0,6.875176187496734,4,3208.7999999523163,-2.8751761874967343,2,62,6,0,0,33.0,0.9417957826943955,50.43357595408743,60.637581181218465,5.866124143040771,9.674073452088342,0.0021693490094782607
3,0,4,390,153.84615384615384,0,74.79787473312055,78,2929.100000023842,3.202125266879449,2,63,6,0,0,33.0,0.9417957826943955,50.43357595408743,60.637581181218465,-2.507238799113111,-4.1347935558644755,0.0002917257554959656
3,0,0,599,100.1669449081803,1,43.84378078116181,48,6500.599999904633,4.156219218838189,2,64,6,0,0,33.0,0.9417957826943955,50.43357595408743,60.637581181218465,5.032388898946124,8.299125395365914,0.00047808577475977137
3,0,2,463,129.58963282937364,2,62.42097125758927,46,9607.799999952316,-16.420971257589272,2,65,6,0,0,33.0,0.9417957826943955,50.43357595408743,60.637581181218465,-19.49712901372044,-32.1535401543348,0.010024556652909961
3,0,4,652,92.02453987730061,0,37.727982709047225,39,2240.399999976158,1.2720172909527747,2,66,6,0,0,33.0,0.9417957826943955,50.43357595408743,60.637581181218465,3.44933294066189,5.688440853788981,0.00023373888979493797
3,0,0,425,141.1764705882353,1,68.5984388693479,73,1514.3000000715256,4.401561130652098,2,67,6,0,0,33.0,0.9417957826943955,50.43357595408743,60.637581181218465,0.011137110232326108,0.018366679566327513,1.734076890824146e-06
3,0,1,710,84.50704225352112,1,31.580629700998873,36,3117.899999976158,4.419370299001127,2,68,6,0,0,33.0,0.9417957826943955,50.43357595408743,60.637581181218465,7.904545282164669,13.035719974616958,0.0017340451402335193
3,0,3,550,109.0909090909091,2,50.0,62,1363.399999976158,12.0,2,69,6,0,0,33.0,0.9417957826943955,50.43357595408743,60.637581181218465,11.56642404591257,19.07467913561019,0.002644884228367973
3,0,0,358,167.5977653631285,0,80.97360155738828,99,2293.899999976158,18.026398442611722,2,70,6,0,0,33.0,0.9417957826943955,50.43357595408743,60.637581181218465,11.003138467695635,18.14574106248104,0.00587133414541551
3,0,1,550,109.0909090909091,1,50.0,48,2189.2999999523163,-2.0,2,71,6,0,0,33.0,0.9417957826943955,50.43357595408743,60.637581181218465,-2.4335759540874307,-4.013313042310455,0.00016377511236962796
3,0,0,774,77.51937984496124,1,25.354902613380577,14,1659.600000023842,-11.354902613380577,2,72,6,0,0,33.0,0.9417957826943955,50.43357595408743,60.637581181218465,-6.545194084084027,-10.793956415450321,0.001961311928943562
3,0,2,599,100.1669449081803,2,43.84378078116181,47,1436.0,3.1562192188381886,2,73,6,0,0,33.0,0.9417957826943955,50.43357595408743,60.637581181218465,4.032388898946124,6.64998309694301,0.000294221107002536
3,0,4,358,167.5977653631285,0,80.97360155738828,90,3027.2999999523163,9.026398442611722,2,74,6,0,0,33.0,0.9417957826943955,50.43357595408743,60.637581181218465,2.003138467695635,3.303460376674912,0.00016763638332723625
3,0,3,390,153.84615384615384,1,74.79787473312055,73,1853.0,-1.7978747331205511,2,75,6,0,0,33.0,0.9417957826943955,50.43357595408743,60.637581181218465,-7.507238799113111,-12.38050504797899,0.002353528305637698
3,0,0,843,71.17437722419929,1,19.194949373496982,10,2517.6999999284744,-9.194949373496982,2,76,6,0,0,33.0,0.9417957826943955,50.43357595408743,60.637581181218465,-3.0747007909650037,-5.0706191293747445,0.0006525206449615411
3,0,5,390,153.84615384615384,2,74.79787473312055,87,1325.5,12.202125266879449,2,77,6,0,0,33.0,0.9417957826943955,50.43357595408743,60.637581181218465,6.492761200886889,10.707487129941654,0.001560231888662527
3,0,2,710,84.50704225352112,2,31.580629700998873,33,3807.799999952316,1.4193702990011268,2,78,6,0,0,33.0,0.9417957826943955,50.43357595408743,60.637581181218465,4.904545282164669,8.088293079348247,0.0006175377864771398
3,0,5,358,167.5977653631285,0,80.97360155738828,93,1844.0,12.026398442611722,2,79,6,0,0,33.0,0.9417957826943955,50.43357595408743,60.637581181218465,5.003138467695635,8.250887271943622,0.0011678058990536911
3,0,1,843,71.17437722419929,1,19.194949373496982,18,2568.8000000715256,-1.194949373496982,2,80,6,0,0,33.0,0.9417957826943955,50.43357595408743,60.637581181218465,4.925299209034996,8.12251925800848,0.0009624506292507962
3,0,5,550,109.0909090909091,0,50.0,50,5929.699999928474,0.0,2,81,6,0,0,33.0,0.9417957826943955,50.43357595408743,60.637581181218465,-0.43357595408743066,-0.7150284454646485,1.3121318636332892e-05
3,0,1,329,182.370820668693,2,87.06720173383901,86,1338.7999999523165,-1.0672017338390134,2,82,6,0,0,33.0,0.9417957826943955,50.43357595408743,60.637581181218465,-9.386885040012743,-15.48030916991818,0.005705653731983675
3,0,3,843,71.17437722419929,0,19.194949373496982,0,1465.600000023842,-19.194949373496982,2,83,6,0,0,33.0,0.9417957826943955,50.43357595408743,60.637581181218465,-13.074700790965004,-21.562042113603777,0.009264894839049683
3,0,5,710,84.50704225352112,1,31.580629700998873,44,2598.600000023842,12.419370299001127,2,84,6,0,0,33.0,0.9417957826943955,50.43357595408743,60.637581181218465,15.90454528216467,26.228858362000185,0.0074683059794911095
3,0,3,358,167.5977653631285,2,80.97360155738828,92,1523.7999999523165,11.026398442611722,2,85,6,0,0,33.0,0.9417957826943955,50.43357595408743,60.637581181218465,4.003138467695635,6.601744973520718,0.000734297941407506
3,0,4,843,71.17437722419929,1,19.194949373496982,7,1888.2999999523165,-12.194949373496982,2,86,6,0,0,33.0,0.9417957826943955,50.43357595408743,60.637581181218465,-6.074700790965004,-10.018046024643454,0.002186257791168851
3,0,3,652,92.02453987730061,1,37.727982709047225,42,5113.799999952316,4.272017290952775,2,87,6,0,0,33.0,0.9417957826943955,50.43357595408743,60.637581181218465,6.44933294066189,10.63586774905769,0.0009285095227541197
3,0,2,918,65.359477124183,1,13.046873249910696,3,1530.8000000715256,-10.046873249910696,2,88,6,0,0,33.0,0.9417957826943955,50.43357595408743,60.637581181218465,-2.618611489919516,-4.318462971162494,0.0006417449387627739
3,0,4,599,100.1669449081803,2,43.84378078116181,63,4493.199999928474,19.15621921883819,2,89,6,0,0,33.0,0.9417957826943955,50.43357595408743,60.637581181218465,20.032388898946124,33.03625987170946,0.008565436479530168
3,0,2,358,167.5977653631285,2,80.97360155738828,89,1983.3000000715256,8.026398442611722,2,90,6,0,0,33.0,0.9417957826943955,50.43357595408743,60.637581181218465,1.003138467695635,1.6543180782520088,3.4482782893151945e-05
3,0,0,329,182.370820668693,0,87.06720173383901,99,3181.100000023842,11.932798266160987,3,91,6,0,0,33.0,0.9417957826943955,50.43357595408743,60.637581181218465,3.613114959987257,5.9585407095795615,0.0007599709942155796
3,0,2,710,84.50704225352112,1,31.580629700998873,25,2180.6999999284744,-6.580629700998873,3,92,6,0,0,33.0,0.9417957826943955,50.43357595408743,60.637581181218465,-3.095454717835331,-5.104845308034977,0.0003970927390340396
3,0,3,329,182.370820668693,1,87.06720173383901,89,2281.399999976158,1.9327982661609866,3,93,6,0,0,33.0,0.9417957826943955,50.43357595408743,60.637581181218465,-6.386885040012743,-10.53288227464947,0.0026773067167282292
3,0,0,918,65.359477124183,1,13.046873249910696,15,2733.600000023842,1.9531267500893037,3,94,6,0,0,33.0,0.9417957826943955,50.43357595408743,60.637581181218465,9.381388510080484,15.471244609912343,0.00488315850834622
3,0,5,652,92.02453987730061,0,37.727982709047225,33,5407.5,-4.727982709047225,3,95,6,0,0,33.0,0.9417957826943955,50.43357595408743,60.637581181218465,-2.55066705933811,-4.206412936748439,0.00022732630034153728
3,0,1,329,182.370820668693,2,87.06720173383901,92,2520.899999976158,4.932798266160987,3,96,6,0,0,33.0,0.9417957826943955,50.43357595408743,60.637581181218465,-3.386885040012743,-5.585455379380761,0.0007811810700120068
3,0,5,390,153.84615384615384,0,74.79787473312055,89,2124.8000000715256,14.202125266879449,3,97,6,0,0,33.0,0.9417957826943955,50.43357595408743,60.637581181218465,8.49276120088689,14.005771726787462,0.0027116024255191985
3,0,0,774,77.51937984496124,1,25.354902613380577,9,2140.6999999284744,-16.354902613380577,3,98,6,0,0,33.0,0.9417957826943955,50.43357595408743,60.637581181218465,-11.545194084084027,-19.039667907564837,0.0057320627889021055
3,0,1,463,129.58963282937364,2,62.42097125758927,49,14730.5,-13.420971257589272,3,99,6,0,0,33.0,0.9417957826943955,50.43357595408743,60.637581181218465,-16.49712901372044,-27.20611325906609,0.007214315766215629
3,0,4,504,119.04761904761905,1,56.30039424560527,50,9288.200000047684,-6.300394245605268,3,100,6,0,0,33.0,0.9417957826943955,50.43357595408743,60.637581181218465,-8.074389304918853,-13.315816936675184,0.0015644997067698512
3,0,0,390,153.84615384615384,0,74.79787473312055,85,2092.200000047684,10.202125266879449,3,101,6,0,0,33.0,0.9417957826943955,50.43357595408743,60.637581181218465,4.492761200886889,7.409202533095847,0.0007250360009119932
3,0,2,918,65.359477124183,0,13.046873249910696,7,1911.0,-6.046873249910696,3,102,6,0,0,33.0,0.9417957826943955,50.43357595408743,60.637581181218465,1.381388510080484,2.278106222529119,4.102073594478545e-05
3,0,3,599,100.1669449081803,1,43.84378078116181,39,8551.699999928474,-4.843780781161811,3,103,6,0,0,33.0,0.9417957826943955,50.43357595408743,60.637581181218465,-3.967611101053876,-6.5431552904402155,0.0004221179714682131
3,0,2,302,198.67549668874173,0,93.24415345434716,100,1552.600000023842,6.755846545652844,3,104,6,0,0,33.0,0.9417957826943955,50.43357595408743,60.637581181218465,-2.8779932681083125,-4.746220433013785,0.0006964557860627648
