subject,first_type,pitch,ioi,tempo,loudness,type,true_score,response,rt,error,block,trial,test_correct,test_incorrect,test_skipped,extreme_responses,pearsonr,intercept,slope,residual,cooks
3,a,6,843,1,2,a,19.19495,93,6767.955000046641,73.80505,0,1,5,0,1,38.0,0.8606991049683148,44.03348037724864,42.74731239457824,75.30318207198981,0.2049071252504234
3,a,4,550,3,1,a,50.0,50,10831.839999882504,0.0,0,2,5,0,1,38.0,0.8606991049683148,44.03348037724864,42.74731239457824,5.966519622751363,0.00038964070870086537
3,a,6,463,4,1,a,62.42097,54,5644.530000165105,-8.420969999999997,0,3,5,0,1,38.0,0.8606991049683148,44.03348037724864,42.74731239457824,-0.6527431490935669,4.169028701247206e-05
3,a,3,843,1,1,a,19.19495,16,6750.789999961853,-3.1949499999999986,0,4,5,0,1,38.0,0.8606991049683148,44.03348037724864,42.74731239457824,-1.6968179280101872,0.00037496917362076046
3,a,6,550,3,1,a,50.0,52,5728.25500019826,2.0,0,5,5,0,1,38.0,0.8606991049683148,44.03348037724864,42.74731239457824,7.966519622751363,0.0007669466415857642
3,a,7,1000,1,0,a,6.87518,0,3273.884999798611,-6.87518,0,6,5,0,1,38.0,0.8606991049683148,44.03348037724864,42.74731239457824,-7.164074067764179,0.00458131341516421
3,a,5,390,4,1,a,74.79787,100,5536.019999999553,25.202129999999997,0,7,5,0,1,38.0,0.8606991049683148,44.03348037724864,42.74731239457824,34.765669663984895,0.034605287686880315
3,a,2,843,1,0,a,19.19495,0,9917.755000060424,-19.19495,0,8,5,0,1,38.0,0.8606991049683148,44.03348037724864,42.74731239457824,-17.696817928010187,0.013794136879607075
3,a,4,652,2,2,a,37.72798,45,15976.07500012964,7.272019999999998,0,9,5,0,1,38.0,0.8606991049683148,44.03348037724864,42.74731239457824,11.45843475971185,0.002031449310857175
3,a,7,599,3,0,a,43.84378,52,7952.264999970794,8.156219999999998,0,10,5,0,1,38.0,0.8606991049683148,44.03348037724864,42.74731239457824,13.22975614509501,0.0024576574581215882
3,a,5,358,5,0,a,80.9736,76,8431.480000028387,-4.973600000000005,0,11,5,0,1,38.0,0.8606991049683148,44.03348037724864,42.74731239457824,5.485755187573929,0.0009194297646946048
3,a,3,710,2,0,a,31.58063,14,2806.7200002260506,-17.58063,0,12,5,0,1,38.0,0.8606991049683148,44.03348037724864,42.74731239457824,-14.285908851592296,0.005703670447502841
3,a,6,329,5,0,a,87.0672,65,23767.565000103787,-22.0672,0,13,5,0,1,38.0,0.8606991049683148,44.03348037724864,42.74731239457824,-10.723945419434017,0.005904825175862064
3,a,2,550,3,2,a,50.0,49,6739.0899998135865,-1.0,0,14,5,0,1,38.0,0.8606991049683148,44.03348037724864,42.74731239457824,4.966519622751363,0.0002484430879323873
3,a,4,302,5,0,a,93.24415,88,7938.2100000511855,-5.244150000000005,0,15,5,0,1,38.0,0.8606991049683148,44.03348037724864,42.74731239457824,6.995092883710214,0.0025974695871712732
3,a,2,710,2,2,a,31.58063,9,6272.869999986142,-22.58063,0,16,5,0,1,38.0,0.8606991049683148,44.03348037724864,42.74731239457824,-19.285908851592296,0.009957120565620519
3,a,7,358,5,2,a,80.9736,67,7550.909999990836,-13.973600000000005,0,17,5,0,1,38.0,0.8606991049683148,44.03348037724864,42.74731239457824,-3.514244812426071,0.0006191915828163483
3,a,5,599,3,2,a,43.84378,51,5721.209999872372,7.156219999999998,0,18,5,0,1,38.0,0.8606991049683148,44.03348037724864,42.74731239457824,12.22975614509501,0.002069284225145913
3,a,2,329,5,1,a,87.0672,91,5769.359999801964,3.9328000000000003,0,19,5,0,1,38.0,0.8606991049683148,44.03348037724864,42.74731239457824,15.276054580565983,0.0103898037893675
3,a,7,652,2,1,a,37.72798,6,5139.744999818504,-31.727980000000002,0,20,5,0,1,38.0,0.8606991049683148,44.03348037724864,42.74731239457824,-27.54156524028815,0.0158880007806111
3,a,4,390,4,0,a,74.79787,72,4284.014999866486,-2.797870000000003,0,21,5,0,1,38.0,0.8606991049683148,44.03348037724864,42.74731239457824,6.7656696639848946,0.0011167165913005955
3,a,5,843,1,1,a,19.19495,0,3807.855000020936,-19.19495,0,22,5,0,1,38.0,0.8606991049683148,44.03348037724864,42.74731239457824,-17.696817928010187,0.013794136879607075
3,a,7,463,4,1,a,62.42097,52,9843.485000077637,-10.420969999999997,0,23,5,0,1,38.0,0.8606991049683148,44.03348037724864,42.74731239457824,-2.652743149093567,0.0002320648796396638
3,a,3,358,5,1,a,80.9736,69,11115.624999860302,-11.973600000000005,0,24,5,0,1,38.0,0.8606991049683148,44.03348037724864,42.74731239457824,-1.514244812426071,0.00015915426864275146
3,a,2,425,4,0,a,68.59844,60,7143.300000112504,-8.598439999999997,0,25,5,0,1,38.0,0.8606991049683148,44.03348037724864,42.74731239457824,0.06585409476173965,1.0296867685008054e-05
3,a,3,599,3,2,a,43.84378,47,8284.690000116825,3.1562199999999976,0,26,5,0,1,38.0,0.8606991049683148,44.03348037724864,42.74731239457824,8.22975614509501,0.000849597968712414
3,a,5,710,2,1,a,31.58063,48,5424.865000182763,16.41937,0,27,5,0,1,38.0,0.8606991049683148,44.03348037724864,42.74731239457824,19.714091148407704,0.008003784778256766
3,a,4,1000,1,1,a,6.87518,0,3197.110000066459,-6.87518,0,28,5,0,1,38.0,0.8606991049683148,44.03348037724864,42.74731239457824,-7.164074067764179,0.00458131341516421
3,a,3,463,4,1,a,62.42097,59,6798.210000153631,-3.420969999999997,0,29,5,0,1,38.0,0.8606991049683148,44.03348037724864,42.74731239457824,4.347256850906433,0.00023979711680352568
3,a,6,774,2,1,a,25.3549,11,8191.224999958649,-14.3549,0,30,5,0,1,38.0,0.8606991049683148,44.03348037724864,42.74731239457824,-11.963246837636152,0.005277923702674136
3,a,6,710,2,0,p,31.58063,44,11389.109999872744,12.41937,1,31,5,0,1,38.0,0.8606991049683148,44.03348037724864,42.74731239457824,15.714091148407704,0.004907520184235566
3,a,2,390,4,1,p,74.79787,73,6669.90500013344,-1.7978700000000032,1,32,5,0,1,38.0,0.8606991049683148,44.03348037724864,42.74731239457824,7.7656696639848946,0.0015106890211035316
3,a,5,599,3,1,p,43.84378,35,10200.385000091046,-8.843780000000002,1,33,5,0,1,38.0,0.8606991049683148,44.03348037724864,42.74731239457824,-3.77024385490499,0.00039508328391624935
3,a,6,1000,1,0,p,6.87518,0,2920.1400000602007,-6.87518,1,34,5,0,1,38.0,0.8606991049683148,44.03348037724864,42.74731239457824,-7.164074067764179,0.00458131341516421
3,a,4,550,3,0,p,50.0,51,4413.704999955371,1.0,1,35,5,0,1,38.0,0.8606991049683148,44.03348037724864,42.74731239457824,6.966519622751363,0.0005624752265853243
3,a,5,358,5,0,p,80.9736,78,3656.704999972135,-2.9736000000000047,1,36,5,0,1,38.0,0.8606991049683148,44.03348037724864,42.74731239457824,7.485755187573929,0.0018139102194692615
3,a,6,550,3,0,p,50.0,50,7733.424999983981,0.0,1,37,5,0,1,38.0,0.8606991049683148,44.03348037724864,42.74731239457824,5.966519622751363,0.00038964070870086537
3,a,5,918,1,1,p,13.04687,11,8456.13000006415,-2.04687,1,38,5,0,1,38.0,0.8606991049683148,44.03348037724864,42.74731239457824,-1.4405433143983828,0.00042415820013210886
3,a,6,302,5,1,p,93.24415,64,7894.554999889806,-29.244150000000005,1,39,5,0,1,38.0,0.8606991049683148,44.03348037724864,42.74731239457824,-17.004907116289786,0.017789610616362393
3,a,2,550,3,2,p,50.0,51,7200.195000041276,1.0,1,40,5,0,1,38.0,0.8606991049683148,44.03348037724864,42.74731239457824,6.966519622751363,0.0005624752265853243
3,a,3,358,5,2,p,80.9736,50,15264.680000022054,-30.973600000000005,1,41,5,0,1,38.0,0.8606991049683148,44.03348037724864,42.74731239457824,-20.51424481242607,0.016682543180244303
3,a,7,599,3,2,p,43.84378,48,7174.099999945611,4.156219999999998,1,42,5,0,1,38.0,0.8606991049683148,44.03348037724864,42.74731239457824,9.22975614509501,0.001104448531500409
3,a,2,302,5,2,p,93.24415,78,4782.070000190288,-15.244150000000005,1,43,5,0,1,38.0,0.8606991049683148,44.03348037724864,42.74731239457824,-3.004907116289786,0.0006679246592850215
3,a,5,652,2,0,p,37.72798,38,7031.994999852032,0.2720199999999977,1,44,5,0,1,38.0,0.8606991049683148,44.03348037724864,42.74731239457824,4.458434759711849,0.00020614919917891336
3,a,7,302,5,2,p,93.24415,70,5675.300000002608,-23.244150000000005,1,45,5,0,1,38.0,0.8606991049683148,44.03348037724864,42.74731239457824,-11.004907116289786,0.007619881083883788
3,a,5,425,4,0,p,68.59844,41,5128.654999891296,-27.598439999999997,1,46,5,0,1,38.0,0.8606991049683148,44.03348037724864,42.74731239457824,-18.93414590523826,0.009115787662307228
3,a,3,504,3,2,p,56.30039,52,5798.155000200495,-4.30039,1,47,5,0,1,38.0,0.8606991049683148,44.03348037724864,42.74731239457824,2.5800212022335316,4.6572547812913725e-05
3,a,4,843,1,2,p,19.19495,2,5062.540000071749,-17.19495,1,48,5,0,1,38.0,0.8606991049683148,44.03348037724864,42.74731239457824,-15.696817928010187,0.011064494970466852
3,a,2,652,2,1,p,37.72798,17,4460.870000068098,-20.727980000000002,1,49,5,0,1,38.0,0.8606991049683148,44.03348037724864,42.74731239457824,-16.54156524028815,0.006050229176702857
3,a,4,425,4,1,p,68.59844,72,3102.6099999435246,3.4015600000000035,1,50,5,0,1,38.0,0.8606991049683148,44.03348037724864,42.74731239457824,12.06585409476174,0.0030322095100891095
3,a,3,843,1,0,p,19.19495,0,2588.35000009276,-19.19495,1,51,5,0,1,38.0,0.8606991049683148,44.03348037724864,42.74731239457824,-17.696817928010187,0.013794136879607075
3,a,6,390,4,2,p,74.79787,57,5422.139999922365,-17.797870000000003,1,52,5,0,1,38.0,0.8606991049683148,44.03348037724864,42.74731239457824,-8.234330336015105,0.002336445401747835
3,a,2,1000,1,0,p,6.87518,0,3987.7949999645352,-6.87518,1,53,5,0,1,38.0,0.8606991049683148,44.03348037724864,42.74731239457824,-7.164074067764179,0.00458131341516421
3,a,7,710,2,0,p,31.58063,24,10685.65999995917,-7.580629999999999,1,54,5,0,1,38.0,0.8606991049683148,44.03348037724864,42.74731239457824,-4.285908851592296,0.0007288488463301708
3,a,3,390,4,2,p,74.79787,52,4309.79000008665,-22.797870000000003,1,55,5,0,1,38.0,0.8606991049683148,44.03348037724864,42.74731239457824,-13.234330336015105,0.005713569695851616
3,a,4,710,2,2,p,31.58063,41,8795.395000139251,9.41937,1,56,5,0,1,38.0,0.8606991049683148,44.03348037724864,42.74731239457824,12.714091148407704,0.0030798127476284447
3,a,7,390,4,0,p,74.79787,64,2923.814999870956,-10.797870000000003,1,57,5,0,1,38.0,0.8606991049683148,44.03348037724864,42.74731239457824,-1.2343303360151054,0.00010373173012449225
3,a,3,652,2,2,p,37.72798,23,2994.265000103041,-14.727980000000002,1,58,5,0,1,38.0,0.8606991049683148,44.03348037724864,42.74731239457824,-10.54156524028815,0.0026478419924268227
3,a,7,1000,1,2,p,6.87518,0,3930.7550000958154,-6.87518,1,59,5,0,1,38.0,0.8606991049683148,44.03348037724864,42.74731239457824,-7.164074067764179,0.00458131341516421
3,a,4,302,5,0,p,93.24415,100,3304.8199999611825,6.755849999999995,1,60,5,0,1,38.0,0.8606991049683148,44.03348037724864,42.74731239457824,18.995092883710214,0.020488176173299014
3,a,6,390,4,2,a,74.79787,75,5355.0449998583645,0.2021299999999968,2,61,5,0,1,38.0,0.8606991049683148,44.03348037724864,42.74731239457824,9.765669663984895,0.002476866762146685
3,a,3,550,3,1,a,50.0,50,18954.135000007227,0.0,2,62,5,0,1,38.0,0.8606991049683148,44.03348037724864,42.74731239457824,5.966519622751363,0.00038964070870086537
3,a,5,1000,1,0,a,6.87518,5,7510.040000081062,-1.8751800000000003,2,63,5,0,1,38.0,0.8606991049683148,44.03348037724864,42.74731239457824,-2.1640740677641794,0.0008566625615217336
3,a,6,358,5,1,a,80.9736,80,5714.704999933019,-0.9736000000000047,2,64,5,0,1,38.0,0.8606991049683148,44.03348037724864,42.74731239457824,9.485755187573929,0.0030093946228990846
3,a,7,918,1,2,a,13.04687,0,3956.2350001651794,-13.04687,2,65,5,0,1,38.0,0.8606991049683148,44.03348037724864,42.74731239457824,-12.440543314398383,0.009266314084313554
3,a,3,329,5,0,a,87.0672,78,5409.38499988988,-9.0672,2,66,5,0,1,38.0,0.8606991049683148,44.03348037724864,42.74731239457824,2.276054580565983,0.00015734599896070108
3,a,2,390,4,2,a,74.79787,60,3658.15500007011,-14.797870000000003,2,67,5,0,1,38.0,0.8606991049683148,44.03348037724864,42.74731239457824,-5.2343303360151054,0.0010231023510346958
3,a,5,302,5,2,a,93.24415,65,7751.550000160932,-28.244150000000005,2,68,5,0,1,38.0,0.8606991049683148,44.03348037724864,42.74731239457824,-16.004907116289786,0.015799669848209442
3,a,4,774,2,0,a,25.3549,24,12779.74999998696,-1.3549000000000007,2,69,5,0,1,38.0,0.8606991049683148,44.03348037724864,42.74731239457824,1.0367531623638477,3.3022188382598175e-06
3,a,2,302,5,2,a,93.24415,82,11664.030000101777,-11.244150000000005,2,70,5,0,1,38.0,0.8606991049683148,44.03348037724864,42.74731239457824,0.995092883710214,2.3810569288227765e-05
3,a,4,599,3,0,a,43.84378,43,7079.795000143349,-0.8437800000000024,2,71,5,0,1,38.0,0.8606991049683148,44.03348037724864,42.74731239457824,4.22975614509501,0.00016400239302963768
3,a,6,710,2,0,a,31.58063,44,3391.3049998227507,12.41937,2,72,5,0,1,38.0,0.8606991049683148,44.03348037724864,42.74731239457824,15.714091148407704,0.004907520184235566
3,a,4,358,5,2,a,80.9736,58,4080.03000007011,-22.973600000000005,2,73,5,0,1,38.0,0.8606991049683148,44.03348037724864,42.74731239457824,-12.514244812426071,0.0064142833612052304
3,a,5,504,3,0,a,56.30039,49,4978.9399998262525,-7.30039,2,74,5,0,1,38.0,0.8606991049683148,44.03348037724864,42.74731239457824,-0.4199787977664684,2.9511838992568473e-05
3,a,7,390,4,2,a,74.79787,63,9979.185000061989,-11.797870000000003,2,75,5,0,1,38.0,0.8606991049683148,44.03348037724864,42.74731239457824,-2.2343303360151054,0.0002444579446334022
3,a,5,652,2,2,a,37.72798,32,7225.315000163391,-5.727980000000002,2,76,5,0,1,38.0,0.8606991049683148,44.03348037724864,42.74731239457824,-1.5415652402881506,0.00014323628777370407
3,a,7,302,5,0,a,93.24415,71,42063.18500009365,-22.244150000000005,2,77,5,0,1,38.0,0.8606991049683148,44.03348037724864,42.74731239457824,-10.004907116289786,0.006337906346306481
3,a,2,652,2,1,a,37.72798,35,13738.934999797491,-2.7279800000000023,2,78,5,0,1,38.0,0.8606991049683148,44.03348037724864,42.74731239457824,1.4584347597118494,1.4277386922465114e-06
3,a,7,504,3,1,a,56.30039,49,10535.175000084564,-7.30039,2,79,5,0,1,38.0,0.8606991049683148,44.03348037724864,42.74731239457824,-0.4199787977664684,2.9511838992568473e-05
3,a,4,918,1,0,a,13.04687,13,6544.070000061765,-0.04687000000000019,2,80,5,0,1,38.0,0.8606991049683148,44.03348037724864,42.74731239457824,0.5594566856016172,4.6751935909223595e-05
3,a,2,599,3,0,a,43.84378,47,10428.56499995105,3.1562199999999976,2,81,5,0,1,38.0,0.8606991049683148,44.03348037724864,42.74731239457824,8.22975614509501,0.000849597968712414
3,a,4,425,4,1,a,68.59844,55,15131.8400001619,-13.598439999999997,2,82,5,0,1,38.0,0.8606991049683148,44.03348037724864,42.74731239457824,-4.93414590523826,0.0007556925660603917
3,a,2,1000,1,2,a,6.87518,0,5050.104999914765,-6.87518,2,83,5,0,1,38.0,0.8606991049683148,44.03348037724864,42.74731239457824,-7.164074067764179,0.00458131341516421
3,a,3,425,4,2,a,68.59844,51,12100.115000037476,-17.598439999999997,2,84,5,0,1,38.0,0.8606991049683148,44.03348037724864,42.74731239457824,-8.93414590523826,0.0022009848280262903
3,a,6,504,3,0,a,56.30039,38,9555.709999985993,-18.30039,2,85,5,0,1,38.0,0.8606991049683148,44.03348037724864,42.74731239457824,-11.419978797766468,0.002537580534148131
3,a,3,1000,1,0,a,6.87518,0,4947.760000126436,-6.87518,2,86,5,0,1,38.0,0.8606991049683148,44.03348037724864,42.74731239457824,-7.164074067764179,0.00458131341516421
3,a,7,710,2,2,a,31.58063,36,5509.700000053272,4.419370000000001,2,87,5,0,1,38.0,0.8606991049683148,44.03348037724864,42.74731239457824,7.714091148407704,0.0009755213226332902
3,a,6,918,1,1,a,13.04687,0,7697.270000120625,-13.04687,2,88,5,0,1,38.0,0.8606991049683148,44.03348037724864,42.74731239457824,-12.440543314398383,0.009266314084313554
3,a,5,425,4,0,a,68.59844,95,10330.065000103788,26.401560000000003,2,89,5,0,1,38.0,0.8606991049683148,44.03348037724864,42.74731239457824,35.06585409476174,0.02780824877271924
3,a,3,652,2,2,a,37.72798,48,11129.970000125468,10.272019999999998,2,90,5,0,1,38.0,0.8606991049683148,44.03348037724864,42.74731239457824,14.45843475971185,0.0033912708032375898
3,a,3,425,4,1,p,68.59844,56,17742.130000144243,-12.598439999999997,3,91,5,0,1,38.0,0.8606991049683148,44.03348037724864,42.74731239457824,-3.9341459052382604,0.0005122827926891379
3,a,4,918,1,0,p,13.04687,27,8377.504999982193,13.95313,3,92,5,0,1,38.0,0.8606991049683148,44.03348037724864,42.74731239457824,14.559456685601617,0.00800405774043328
3,a,5,550,3,2,p,50.0,37,6530.225000111386,-13.0,3,93,5,0,1,38.0,0.8606991049683148,44.03348037724864,42.74731239457824,-7.033480377248637,0.0010217496137571655
3,a,3,1000,1,2,p,6.87518,0,4128.030000021681,-6.87518,3,94,5,0,1,38.0,0.8606991049683148,44.03348037724864,42.74731239457824,-7.164074067764179,0.00458131341516421
3,a,5,390,4,2,p,74.79787,75,25214.09000013955,0.2021299999999968,3,95,5,0,1,38.0,0.8606991049683148,44.03348037724864,42.74731239457824,9.765669663984895,0.002476866762146685
3,a,3,550,3,0,p,50.0,50,8286.929999943823,0.0,3,96,5,0,1,38.0,0.8606991049683148,44.03348037724864,42.74731239457824,5.966519622751363,0.00038964070870086537
3,a,6,918,1,2,p,13.04687,16,3327.4899998214096,2.95313,3,97,5,0,1,38.0,0.8606991049683148,44.03348037724864,42.74731239457824,3.559456685601617,0.00019040702533946633
3,a,5,302,5,2,p,93.24415,88,8392.559999832883,-5.244150000000005,3,98,5,0,1,38.0,0.8606991049683148,44.03348037724864,42.74731239457824,6.995092883710214,0.0025974695871712732
3,a,6,652,2,1,p,37.72798,59,6225.865000160411,21.272019999999998,3,99,5,0,1,38.0,0.8606991049683148,44.03348037724864,42.74731239457824,25.45843475971185,0.011342039690493062
3,a,5,1000,1,0,p,6.87518,0,3810.710000107065,-6.87518,3,100,5,0,1,38.0,0.8606991049683148,44.03348037724864,42.74731239457824,-7.164074067764179,0.00458131341516421
3,a,4,329,5,1,p,87.0672,75,3905.269999988377,-12.0672,3,101,5,0,1,38.0,0.8606991049683148,44.03348037724864,42.74731239457824,-0.7239454194340169,6.534974682774723e-05
3,a,5,774,2,2,p,25.3549,27,9159.539999905974,1.6450999999999993,3,102,5,0,1,38.0,0.8606991049683148,44.03348037724864,42.74731239457824,4.036753162363848,0.00021108233451139333
3,a,4,599,3,1,p,43.84378,50,9538.315000012515,6.156219999999998,3,103,5,0,1,38.0,0.8606991049683148,44.03348037724864,42.74731239457824,11.22975614509501,0.001714291659717158
3,a,3,710,2,1,p,31.58063,36,8206.135000102222,4.419370000000001,3,104,5,0,1,38.0,0.8606991049683148,44.03348037724864,42.74731239457824,7.714091148407704,0.0009755213226332902
3,a,6,504,3,1,p,56.30039,50,6691.339999902993,-6.30039,3,105,5,0,1,38.0,0.8606991049683148,44.03348037724864,42.74731239457824,0.5800212022335316,1.8140065106468325e-06
3,a,4,774,2,1,p,25.3549,32,5302.069999976084,6.645099999999999,3,106,5,0,1,38.0,0.8606991049683148,44.03348037724864,42.74731239457824,9.036753162363848,0.00174488290904728
3,a,6,358,5,0,p,80.9736,75,3118.6499998439103,-5.973600000000005,3,107,5,0,1,38.0,0.8606991049683148,44.03348037724864,42.74731239457824,4.485755187573929,0.0005850660180529647
3,a,2,599,3,0,p,43.84378,46,10132.985000032932,2.1562199999999976,3,108,5,0,1,38.0,0.8606991049683148,44.03348037724864,42.74731239457824,7.22975614509501,0.0006281280734713401
3,a,7,843,1,1,p,19.19495,53,18195.48500003293,33.80505,3,109,5,0,1,38.0,0.8606991049683148,44.03348037724864,42.74731239457824,35.30318207198981,0.043037940278316006
3,a,2,358,5,0,p,80.9736,49,11823.469999944791,-31.973600000000005,3,110,5,0,1,38.0,0.8606991049683148,44.03348037724864,42.74731239457824,-21.51424481242607,0.018304705099861252
3,a,6,463,4,1,p,62.42097,71,17832.600000081584,8.579030000000003,3,111,5,0,1,38.0,0.8606991049683148,44.03348037724864,42.74731239457824,16.347256850906433,0.004643963094508989
3,a,7,774,2,1,p,25.3549,5,8479.579999810085,-20.3549,3,112,5,0,1,38.0,0.8606991049683148,44.03348037724864,42.74731239457824,-17.963246837636152,0.011096740475501356
3,a,2,463,4,0,p,62.42097,50,13837.27000001818,-12.420969999999997,3,113,5,0,1,38.0,0.8606991049683148,44.03348037724864,42.74731239457824,-4.652743149093567,0.000576506514863206
3,a,3,302,5,0,p,93.24415,63,11283.215000061318,-30.244150000000005,3,114,5,0,1,38.0,0.8606991049683148,44.03348037724864,42.74731239457824,-18.004907116289786,0.019897545722944627
3,a,2,843,1,2,p,19.19495,34,12740.020000142977,14.805050000000001,3,115,5,0,1,38.0,0.8606991049683148,44.03348037724864,42.74731239457824,16.303182071989813,0.008277495464595549
3,a,7,463,4,1,p,62.42097,54,6015.9350000321865,-8.420969999999997,3,116,5,0,1,38.0,0.8606991049683148,44.03348037724864,42.74731239457824,-0.6527431490935669,4.169028701247206e-05
3,a,2,710,2,0,p,31.58063,43,6056.540000019595,11.41937,3,117,5,0,1,38.0,0.8606991049683148,44.03348037724864,42.74731239457824,14.714091148407704,0.004251189990232358
3,a,7,550,3,0,p,50.0,49,5284.530000062659,-1.0,3,118,5,0,1,38.0,0.8606991049683148,44.03348037724864,42.74731239457824,4.966519622751363,0.0002484430879323873
3,a,4,390,4,2,p,74.79787,62,7859.6000000834465,-12.797870000000003,3,119,5,0,1,38.0,0.8606991049683148,44.03348037724864,42.74731239457824,-3.2343303360151054,0.00044459511962140604
3,a,7,329,5,1,p,87.0672,67,6927.435000194237,-20.0672,3,120,5,0,1,38.0,0.8606991049683148,44.03348037724864,42.74731239457824,-8.723945419434017,0.0039804833697092545
3,a,5,918,1,2,a,13.04687,27,2748.520000139252,13.95313,4,121,5,0,1,38.0,0.8606991049683148,44.03348037724864,42.74731239457824,14.559456685601617,0.00800405774043328
3,a,2,504,3,1,a,56.30039,50,4963.620000053197,-6.30039,4,122,5,0,1,38.0,0.8606991049683148,44.03348037724864,42.74731239457824,0.5800212022335316,1.8140065106468325e-06
3,a,7,329,5,1,a,87.0672,69,9273.730000015348,-18.0672,4,123,5,0,1,38.0,0.8606991049683148,44.03348037724864,42.74731239457824,-6.723945419434017,0.0024343649237294155
3,a,4,710,2,1,a,31.58063,38,10739.615000085903,6.419370000000001,4,124,5,0,1,38.0,0.8606991049683148,44.03348037724864,42.74731239457824,9.714091148407704,0.0016759547472288447
3,a,5,329,5,1,a,87.0672,83,18752.61500012129,-4.0672,4,125,5,0,1,38.0,0.8606991049683148,44.03348037724864,42.74731239457824,7.276054580565983,0.0022017898867138282
3,a,6,652,2,2,a,37.72798,26,4557.584999827668,-11.727980000000002,4,126,5,0,1,38.0,0.8606991049683148,44.03348037724864,42.74731239457824,-7.541565240288151,0.0014664434146409921
3,a,4,504,3,2,a,56.30039,50,3389.075000071898,-6.30039,4,127,5,0,1,38.0,0.8606991049683148,44.03348037724864,42.74731239457824,0.5800212022335316,1.8140065106468325e-06
3,a,6,302,5,2,a,93.24415,76,10999.354999978095,-17.244150000000005,4,128,5,0,1,38.0,0.8606991049683148,44.03348037724864,42.74731239457824,-5.004907116289786,0.0016979477348590657
3,a,7,425,4,0,a,68.59844,52,3287.569999927655,-16.598439999999997,4,129,5,0,1,38.0,0.8606991049683148,44.03348037724864,42.74731239457824,-7.93414590523826,0.0017689137872626826
3,a,6,1000,1,0,a,6.87518,0,4219.150000018999,-6.87518,4,130,5,0,1,38.0,0.8606991049683148,44.03348037724864,42.74731239457824,-7.164074067764179,0.00458131341516421
3,a,7,774,2,0,a,25.3549,2,8491.069999989122,-23.3549,4,131,5,0,1,38.0,0.8606991049683148,44.03348037724864,42.74731239457824,-20.963246837636152,0.014807711619594417
3,a,6,599,3,2,a,43.84378,50,6106.830000178888,6.156219999999998,4,132,5,0,1,38.0,0.8606991049683148,44.03348037724864,42.74731239457824,11.22975614509501,0.001714291659717158
3,a,7,843,1,1,a,19.19495,33,5854.9599999096245,13.805050000000001,4,133,5,0,1,38.0,0.8606991049683148,44.03348037724864,42.74731239457824,15.303182071989813,0.007199602616202246
3,a,5,463,4,2,a,62.42097,50,4148.829999845475,-12.420969999999997,4,134,5,0,1,38.0,0.8606991049683148,44.03348037724864,42.74731239457824,-4.652743149093567,0.000576506514863206
3,a,3,504,3,0,a,56.30039,59,7733.160000061616,2.69961,4,135,5,0,1,38.0,0.8606991049683148,44.03348037724864,42.74731239457824,9.580021202233532,0.001254846608165005
3,a,2,463,4,1,a,62.42097,41,12792.630000039935,-21.420969999999997,4,136,5,0,1,38.0,0.8606991049683148,44.03348037724864,42.74731239457824,-13.652743149093567,0.004033073525498982
3,a,3,774,2,1,a,25.3549,37,17349.55000015907,11.6451,4,137,5,0,1,38.0,0.8606991049683148,44.03348037724864,42.74731239457824,14.036753162363848,0.00476305896076733
3,a,2,918,1,1,a,13.04687,1,2316.695000045001,-12.04687,4,138,5,0,1,38.0,0.8606991049683148,44.03348037724864,42.74731239457824,-11.440543314398383,0.0079893054073631
3,a,3,302,5,2,a,93.24415,100,4954.799999948591,6.755849999999995,4,139,5,0,1,38.0,0.8606991049683148,44.03348037724864,42.74731239457824,18.995092883710214,0.020488176173299014
3,a,2,774,2,0,a,25.3549,13,7854.25000009127,-12.3549,4,140,5,0,1,38.0,0.8606991049683148,44.03348037724864,42.74731239457824,-9.963246837636152,0.0038133182644306614
3,a,3,918,1,2,a,13.04687,31,12839.075000025332,17.95313,4,141,5,0,1,38.0,0.8606991049683148,44.03348037724864,42.74731239457824,18.559456685601617,0.013684443216252952
3,a,7,550,3,2,a,50.0,50,5268.9450001344085,0.0,4,142,5,0,1,38.0,0.8606991049683148,44.03348037724864,42.74731239457824,5.966519622751363,0.00038964070870086537
3,a,4,843,1,2,a,19.19495,35,3346.2400001008064,15.805050000000001,4,143,5,0,1,38.0,0.8606991049683148,44.03348037724864,42.74731239457824,17.303182071989813,0.009430548737695423
3,a,6,425,4,0,a,68.59844,75,5697.189999977127,6.4015600000000035,4,144,5,0,1,38.0,0.8606991049683148,44.03348037724864,42.74731239457824,15.06585409476174,0.004848907299772126
3,a,4,329,5,1,a,87.0672,71,14298.73999999836,-16.0672,4,145,5,0,1,38.0,0.8606991049683148,44.03348037724864,42.74731239457824,-4.723945419434017,0.0012664698379225518
3,a,3,390,4,0,a,74.79787,49,9977.944999933245,-25.797870000000003,4,146,5,0,1,38.0,0.8606991049683148,44.03348037724864,42.74731239457824,-16.234330336015105,0.00845277579806301
3,a,5,550,3,1,a,50.0,49,9811.680000042545,-1.0,4,147,5,0,1,38.0,0.8606991049683148,44.03348037724864,42.74731239457824,4.966519622751363,0.0002484430879323873
3,a,4,463,4,2,a,62.42097,52,17005.265000043437,-10.420969999999997,4,148,5,0,1,38.0,0.8606991049683148,44.03348037724864,42.74731239457824,-2.652743149093567,0.0002320648796396638
3,a,2,358,5,0,a,80.9736,91,7728.200000012293,10.026399999999995,4,149,5,0,1,38.0,0.8606991049683148,44.03348037724864,42.74731239457824,20.48575518757393,0.014965004423974226
3,a,5,774,2,0,a,25.3549,25,12394.314999924973,-0.35490000000000066,4,150,5,0,1,38.0,0.8606991049683148,44.03348037724864,42.74731239457824,2.0367531623638477,1.3187238308604439e-05
3,a,5,463,4,1,p,62.42097,50,4703.510000137612,-12.420969999999997,5,151,5,0,1,38.0,0.8606991049683148,44.03348037724864,42.74731239457824,-4.652743149093567,0.000576506514863206
3,a,3,774,2,0,p,25.3549,37,11455.085000023246,11.6451,5,152,5,0,1,38.0,0.8606991049683148,44.03348037724864,42.74731239457824,14.036753162363848,0.00476305896076733
3,a,6,425,4,0,p,68.59844,54,6058.405000017956,-14.598439999999997,5,153,5,0,1,38.0,0.8606991049683148,44.03348037724864,42.74731239457824,-5.93414590523826,0.0010462676562797337
3,a,4,358,5,2,p,80.9736,61,5405.014999909326,-19.973600000000005,5,154,5,0,1,38.0,0.8606991049683148,44.03348037724864,42.74731239457824,-9.514244812426071,0.003805327217268142
3,a,5,710,2,1,p,31.58063,37,7607.944999821484,5.419370000000001,5,155,5,0,1,38.0,0.8606991049683148,44.03348037724864,42.74731239457824,8.714091148407704,0.0013021908440306498
3,a,6,843,1,1,p,19.19495,0,3144.4349999073893,-19.19495,5,156,5,0,1,38.0,0.8606991049683148,44.03348037724864,42.74731239457824,-17.696817928010187,0.013794136879607075
3,a,4,504,3,2,p,56.30039,50,3639.940000139177,-6.30039,5,157,5,0,1,38.0,0.8606991049683148,44.03348037724864,42.74731239457824,0.5800212022335316,1.8140065106468325e-06
3,a,7,918,1,0,p,13.04687,12,5875.904999906197,-1.0468700000000002,5,158,5,0,1,38.0,0.8606991049683148,44.03348037724864,42.74731239457824,-0.4405433143983828,0.00018813743563636157
3,a,3,463,4,0,p,62.42097,75,6012.044999981299,12.579030000000003,5,159,5,0,1,38.0,0.8606991049683148,44.03348037724864,42.74731239457824,20.347256850906433,0.007344554761181613
3,a,7,358,5,0,p,80.9736,51,7259.444999974221,-29.973600000000005,5,160,5,0,1,38.0,0.8606991049683148,44.03348037724864,42.74731239457824,-19.51424481242607,0.015135632247791147
3,a,3,918,1,1,p,13.04687,0,3265.7149999868125,-13.04687,5,161,5,0,1,38.0,0.8606991049683148,44.03348037724864,42.74731239457824,-12.440543314398383,0.009266314084313554
3,a,4,652,2,0,p,37.72798,49,8128.314999863505,11.272019999999998,5,162,5,0,1,38.0,0.8606991049683148,44.03348037724864,42.74731239457824,15.45843475971185,0.003921551302823979
3,a,3,599,3,1,p,43.84378,48,6969.6299999486655,4.156219999999998,5,163,5,0,1,38.0,0.8606991049683148,44.03348037724864,42.74731239457824,9.22975614509501,0.001104448531500409
3,a,6,774,2,2,p,25.3549,42,5667.64000011608,16.6451,5,164,5,0,1,38.0,0.8606991049683148,44.03348037724864,42.74731239457824,19.036753162363848,0.009265610489671545
3,a,3,329,5,1,p,87.0672,79,5463.749999878928,-8.0672,5,165,5,0,1,38.0,0.8606991049683148,44.03348037724864,42.74731239457824,3.276054580565983,0.00037712309642483956
3,a,2,774,2,2,p,25.3549,24,3382.340000011027,-1.3549000000000007,5,166,5,0,1,38.0,0.8606991049683148,44.03348037724864,42.74731239457824,1.0367531623638477,3.3022188382598175e-06
3,a,5,329,5,1,p,87.0672,87,9468.104999978095,-0.0671999999999997,5,167,5,0,1,38.0,0.8606991049683148,44.03348037724864,42.74731239457824,11.276054580565983,0.005539350117694715
3,a,7,504,3,1,p,56.30039,48,7006.474999943748,-8.30039,5,168,5,0,1,38.0,0.8606991049683148,44.03348037724864,42.74731239457824,-1.4199787977664684,9.059440689652684e-05
3,a,4,463,4,0,p,62.42097,51,6781.634999904782,-11.420969999999997,5,169,5,0,1,38.0,0.8606991049683148,44.03348037724864,42.74731239457824,-3.652743149093567,0.00038502731692689117
3,a,6,599,3,2,p,43.84378,52,7316.409999970347,8.156219999999998,5,170,5,0,1,38.0,0.8606991049683148,44.03348037724864,42.74731239457824,13.22975614509501,0.0024576574581215882
3,a,5,843,1,2,p,19.19495,0,6334.060000022873,-19.19495,5,171,5,0,1,38.0,0.8606991049683148,44.03348037724864,42.74731239457824,-17.696817928010187,0.013794136879607075
3,a,7,425,4,2,p,68.59844,57,4828.340000007302,-11.598439999999997,5,172,5,0,1,38.0,0.8606991049683148,44.03348037724864,42.74731239457824,-2.9341459052382604,0.00031603833616597276
3,a,2,504,3,1,p,56.30039,51,6365.460000000894,-5.30039,5,173,5,0,1,38.0,0.8606991049683148,44.03348037724864,42.74731239457824,1.5800212022335316,7.5009094507619195e-06
3,a,7,652,2,2,p,37.72798,50,6816.83999998495,12.272019999999998,5,174,5,0,1,38.0,0.8606991049683148,44.03348037724864,42.74731239457824,16.45843475971185,0.0044903351368068235
3,a,2,329,5,1,p,87.0672,97,12189.40500007011,9.9328,5,175,5,0,1,38.0,0.8606991049683148,44.03348037724864,42.74731239457824,21.276054580565983,0.02050215949817398
3,a,4,1000,1,1,p,6.87518,0,5169.170000124723,-6.87518,5,176,5,0,1,38.0,0.8606991049683148,44.03348037724864,42.74731239457824,-7.164074067764179,0.00458131341516421
3,a,2,425,4,2,p,68.59844,62,7689.40500007011,-6.5984399999999965,5,177,5,0,1,38.0,0.8606991049683148,44.03348037724864,42.74731239457824,2.0658540947617396,4.229580627147385e-05
3,a,6,329,5,2,p,87.0672,56,7917.935000034049,-31.0672,5,178,5,0,1,38.0,0.8606991049683148,44.03348037724864,42.74731239457824,-19.723945419434017,0.019244877385690282
3,a,2,918,1,1,p,13.04687,5,3692.365000024438,-8.04687,5,179,5,0,1,38.0,0.8606991049683148,44.03348037724864,42.74731239457824,-7.440543314398383,0.003827623347247391
3,a,5,504,3,0,p,56.30039,20,8516.489999834448,-36.30039,5,180,5,0,1,38.0,0.8606991049683148,44.03348037724864,42.74731239457824,-29.41997879776647,0.015355108889554273
4,p,6,774,2,2,p,25.3549,23,4323.899999959394,-2.3549000000000007,0,1,6,0,0,5.0,0.9283184815699668,50.51698690213663,34.63738828148163,-10.44415075383133,0.007770413662704873
4,p,7,302,5,1,p,93.24415,100,3140.98499994725,6.755849999999995,0,2,6,0,0,5.0,0.9283184815699668,50.51698690213663,34.63738828148163,19.52572241581943,0.05810909992541811
4,p,6,550,3,2,p,50.0,42,2760.594999883324,-8.0,0,3,6,0,0,5.0,0.9283184815699668,50.51698690213663,34.63738828148163,-8.51698690213663,0.003205655364012821
4,p,4,774,2,2,p,25.3549,10,3558.104999829084,-15.3549,0,4,6,0,0,5.0,0.9283184815699668,50.51698690213663,34.63738828148163,-23.44415075383133,0.0438432188952346
4,p,6,358,5,1,p,80.9736,100,4823.570000007749,19.026399999999995,0,5,6,0,0,5.0,0.9283184815699668,50.51698690213663,34.63738828148163,28.026119825480137,0.08173539613928003
4,p,2,918,1,0,p,13.04687,0,2467.6050001289696,-13.04687,0,6,6,0,0,5.0,0.9283184815699668,50.51698690213663,34.63738828148163,-24.917790912983666,0.07675152543418272
4,p,4,358,5,1,p,80.9736,74,2787.514999974519,-6.973600000000005,0,7,6,0,0,5.0,0.9283184815699668,50.51698690213663,34.63738828148163,2.026119825480137,0.00016691278482182568
4,p,3,599,3,0,p,43.84378,48,4119.865000015125,4.156219999999998,0,8,6,0,0,5.0,0.9283184815699668,50.51698690213663,34.63738828148163,1.7477202064397233,0.00022508779303954168
4,p,4,463,4,0,p,62.42097,71,2426.9550000317395,8.579030000000003,0,9,6,0,0,5.0,0.9283184815699668,50.51698690213663,34.63738828148163,11.878413012218509,0.007695851222894914
4,p,5,504,3,0,p,56.30039,49,9530.534999910742,-7.30039,0,10,6,0,0,5.0,0.9283184815699668,50.51698690213663,34.63738828148163,-5.881570938365471,0.001693156817863878
4,p,6,425,4,1,p,68.59844,68,5921.455000061542,-0.5984399999999965,0,11,6,0,0,5.0,0.9283184815699668,50.51698690213663,34.63738828148163,4.598986126923307,0.0012194005549620137
4,p,4,1000,1,2,p,6.87518,0,1970.0449998490512,-6.87518,0,12,6,0,0,5.0,0.9283184815699668,50.51698690213663,34.63738828148163,-20.64236156285343,0.06280467818466443
4,p,5,329,5,1,p,87.0672,86,2825.4650000017136,-1.0671999999999997,0,13,6,0,0,5.0,0.9283184815699668,50.51698690213663,34.63738828148163,9.804791918603541,0.010758620226150966
4,p,7,652,2,0,p,37.72798,37,2466.895000077784,-0.7279800000000023,0,14,6,0,0,5.0,0.9283184815699668,50.51698690213663,34.63738828148163,-5.015574344060873,0.0011024583035553275
4,p,5,843,1,1,p,19.19495,13,2007.57999997586,-6.194949999999999,0,15,6,0,0,5.0,0.9283184815699668,50.51698690213663,34.63738828148163,-16.176856910518953,0.02472819911359133
4,p,3,390,4,1,p,74.79787,82,2369.930000044405,7.202129999999997,0,16,6,0,0,5.0,0.9283184815699668,50.51698690213663,34.63738828148163,14.304340784130574,0.016351330442730242
4,p,7,1000,1,0,p,6.87518,12,2740.449999924749,5.12482,0,17,6,0,0,5.0,0.9283184815699668,50.51698690213663,34.63738828148163,-8.64236156285343,0.008611354628376412
4,p,2,358,5,1,p,80.9736,94,4258.804999990389,13.026399999999995,0,18,6,0,0,5.0,0.9283184815699668,50.51698690213663,34.63738828148163,22.026119825480137,0.049684365930267836
4,p,5,463,4,1,p,62.42097,77,4273.800000082701,14.579030000000003,0,19,6,0,0,5.0,0.9283184815699668,50.51698690213663,34.63738828148163,17.87841301221851,0.017634262159775704
4,p,3,302,5,1,p,93.24415,93,2721.9899999909103,-0.24415000000000475,0,20,6,0,0,5.0,0.9283184815699668,50.51698690213663,34.63738828148163,12.52572241581943,0.022209941819643392
4,p,2,774,2,2,p,25.3549,6,2926.730000181124,-19.3549,0,21,6,0,0,5.0,0.9283184815699668,50.51698690213663,34.63738828148163,-27.44415075383133,0.06085677229746192
4,p,6,1000,1,2,p,6.87518,0,2537.6850001048297,-6.87518,0,22,6,0,0,5.0,0.9283184815699668,50.51698690213663,34.63738828148163,-20.64236156285343,0.06280467818466443
4,p,2,504,3,2,p,56.30039,48,7111.920000053942,-8.30039,0,23,6,0,0,5.0,0.9283184815699668,50.51698690213663,34.63738828148163,-6.881570938365471,0.0023175595115772006
4,p,3,843,1,0,p,19.19495,37,2389.519999967888,17.80505,0,24,6,0,0,5.0,0.9283184815699668,50.51698690213663,34.63738828148163,7.8231430894810465,0.008944018374897299
4,p,7,390,4,1,p,74.79787,74,2088.0899999756366,-0.7978700000000032,0,25,6,0,0,5.0,0.9283184815699668,50.51698690213663,34.63738828148163,6.304340784130574,0.002834698024785866
4,p,5,710,2,2,p,31.58063,34,1899.534999858588,2.4193700000000007,0,26,6,0,0,5.0,0.9283184815699668,50.51698690213663,34.63738828148163,-3.7570092831987836,0.0006064797414938636
4,p,2,390,4,1,p,74.79787,69,3532.8850001096725,-5.797870000000003,0,27,6,0,0,5.0,0.9283184815699668,50.51698690213663,34.63738828148163,1.3043407841305736,4.353173158715364e-05
4,p,4,550,3,2,p,50.0,46,2294.2500000353903,-4.0,0,28,6,0,0,5.0,0.9283184815699668,50.51698690213663,34.63738828148163,-4.51698690213663,0.0008636769462773696
4,p,3,652,2,2,p,37.72798,39,1993.914999999106,1.2720199999999977,0,29,6,0,0,5.0,0.9283184815699668,50.51698690213663,34.63738828148163,-3.015574344060873,0.0003306294883707385
4,p,7,504,3,0,p,56.30039,53,2712.3249999713157,-3.30039,0,30,6,0,0,5.0,0.9283184815699668,50.51698690213663,34.63738828148163,-1.8815709383654706,0.0001736012623921015
4,p,5,652,2,2,a,37.72798,45,2427.7599998749797,7.272019999999998,1,31,6,0,0,5.0,0.9283184815699668,50.51698690213663,34.63738828148163,2.984425655939127,0.0007223722020589084
4,p,2,843,1,1,a,19.19495,26,2054.92000002414,6.805050000000001,1,32,6,0,0,5.0,0.9283184815699668,50.51698690213663,34.63738828148163,-3.1768569105189535,0.00043459323929328944
4,p,7,504,3,0,a,56.30039,53,2234.6100001595914,-3.30039,1,33,6,0,0,5.0,0.9283184815699668,50.51698690213663,34.63738828148163,-1.8815709383654706,0.0001736012623921015
4,p,4,843,1,2,a,19.19495,31,2573.009999934584,11.805050000000001,1,34,6,0,0,5.0,0.9283184815699668,50.51698690213663,34.63738828148163,1.8231430894810465,0.000999609984671593
4,p,6,425,4,0,a,68.59844,64,2087.8800000064075,-4.5984399999999965,1,35,6,0,0,5.0,0.9283184815699668,50.51698690213663,34.63738828148163,0.5989861269233074,2.7956717803203757e-06
4,p,3,504,3,2,a,56.30039,48,3061.5149999503046,-8.30039,1,36,6,0,0,5.0,0.9283184815699668,50.51698690213663,34.63738828148163,-6.881570938365471,0.0023175595115772006
4,p,7,463,4,2,a,62.42097,60,2232.255000155419,-2.420969999999997,1,37,6,0,0,5.0,0.9283184815699668,50.51698690213663,34.63738828148163,0.878413012218509,2.6022518594309557e-05
4,p,3,918,1,1,a,13.04687,17,3112.5649998430163,3.95313,1,38,6,0,0,5.0,0.9283184815699668,50.51698690213663,34.63738828148163,-7.917790912983666,0.005911283797173133
4,p,5,329,5,0,a,87.0672,82,2111.6049999836832,-5.0672,1,39,6,0,0,5.0,0.9283184815699668,50.51698690213663,34.63738828148163,5.8047919186035415,0.003209002431427105
4,p,3,390,4,1,a,74.79787,63,2035.5050000362096,-11.797870000000003,1,40,6,0,0,5.0,0.9283184815699668,50.51698690213663,34.63738828148163,-4.695659215869426,0.00243788774727317
4,p,2,358,5,1,a,80.9736,79,2115.199999883771,-1.9736000000000047,1,41,6,0,0,5.0,0.9283184815699668,50.51698690213663,34.63738828148163,7.026119825480137,0.004279067289751411
4,p,5,550,3,1,a,50.0,46,1782.6249999925494,-4.0,1,42,6,0,0,5.0,0.9283184815699668,50.51698690213663,34.63738828148163,-4.51698690213663,0.0008636769462773696
4,p,6,1000,1,2,a,6.87518,10,2023.4600000549108,3.1248199999999997,1,43,6,0,0,5.0,0.9283184815699668,50.51698690213663,34.63738828148163,-10.64236156285343,0.014184632923274237
4,p,4,652,2,0,a,37.72798,39,2003.170000156388,1.2720199999999977,1,44,6,0,0,5.0,0.9283184815699668,50.51698690213663,34.63738828148163,-3.015574344060873,0.0003306294883707385
4,p,6,550,3,0,a,50.0,52,2193.405000027269,2.0,1,45,6,0,0,5.0,0.9283184815699668,50.51698690213663,34.63738828148163,1.4830130978633704,0.00013125845012168432
4,p,7,329,5,1,a,87.0672,95,2022.0749999862164,7.9328,1,46,6,0,0,5.0,0.9283184815699668,50.51698690213663,34.63738828148163,18.80479191860354,0.04395065669749748
4,p,3,774,2,0,a,25.3549,37,1658.5699999704957,11.6451,1,47,6,0,0,5.0,0.9283184815699668,50.51698690213663,34.63738828148163,3.5558492461686697,0.0017989309993471487
4,p,5,463,4,2,a,62.42097,60,2105.8999998494983,-2.420969999999997,1,48,6,0,0,5.0,0.9283184815699668,50.51698690213663,34.63738828148163,0.878413012218509,2.6022518594309557e-05
4,p,3,329,5,0,a,87.0672,73,1771.7699999921024,-14.0672,1,49,6,0,0,5.0,0.9283184815699668,50.51698690213663,34.63738828148163,-3.1952080813964585,0.002427758826516238
4,p,4,463,4,1,a,62.42097,54,2102.2300000768155,-8.420969999999997,1,50,6,0,0,5.0,0.9283184815699668,50.51698690213663,34.63738828148163,-5.121586987781491,0.0015973475962380728
4,p,2,710,2,1,a,31.58063,36,1687.3999999370426,4.419370000000001,1,51,6,0,0,5.0,0.9283184815699668,50.51698690213663,34.63738828148163,-1.7570092831987836,6.424615634521131e-05
4,p,4,329,5,2,a,87.0672,86,1985.554999904707,-1.0671999999999997,1,52,6,0,0,5.0,0.9283184815699668,50.51698690213663,34.63738828148163,9.804791918603541,0.010758620226150966
4,p,7,652,2,2,a,37.72798,44,1571.98500004597,6.272019999999998,1,53,6,0,0,5.0,0.9283184815699668,50.51698690213663,34.63738828148163,1.984425655939127,0.0003750787123565115
4,p,4,504,3,0,a,56.30039,53,1576.9050000235438,-3.30039,1,54,6,0,0,5.0,0.9283184815699668,50.51698690213663,34.63738828148163,-1.8815709383654706,0.0001736012623921015
4,p,6,710,2,1,a,31.58063,41,1346.180000109598,9.41937,1,55,6,0,0,5.0,0.9283184815699668,50.51698690213663,34.63738828148163,3.2429907168012164,0.0011231364838265418
4,p,7,1000,1,0,a,6.87518,29,1686.2850000616163,22.12482,1,56,6,0,0,5.0,0.9283184815699668,50.51698690213663,34.63738828148163,8.35763843714657,0.01710040723148693
4,p,2,599,3,2,a,43.84378,47,1920.5749998800457,3.1562199999999976,1,57,6,0,0,5.0,0.9283184815699668,50.51698690213663,34.63738828148163,0.7477202064397233,6.416492695589311e-05
4,p,6,358,5,0,a,80.9736,68,1868.7150001060215,-12.973600000000005,1,58,6,0,0,5.0,0.9283184815699668,50.51698690213663,34.63738828148163,-3.973880174519863,0.00250747110656641
4,p,5,843,1,2,a,19.19495,36,1791.4700000546873,16.80505,1,59,6,0,0,5.0,0.9283184815699668,50.51698690213663,34.63738828148163,6.8231430894810465,0.007069466348058793
4,p,2,425,4,2,a,68.59844,57,1345.3699999954551,-11.598439999999997,1,60,6,0,0,5.0,0.9283184815699668,50.51698690213663,34.63738828148163,-6.401013873076693,0.0031935814315661583
4,p,2,425,4,0,p,68.59844,56,2017.5100001506507,-12.598439999999997,2,61,6,0,0,5.0,0.9283184815699668,50.51698690213663,34.63738828148163,-7.401013873076693,0.004202119065338556
4,p,7,550,3,1,p,50.0,52,1781.7199998535216,2.0,2,62,6,0,0,5.0,0.9283184815699668,50.51698690213663,34.63738828148163,1.4830130978633704,0.00013125845012168432
4,p,4,843,1,0,p,19.19495,33,1828.0450000893325,13.805050000000001,2,63,6,0,0,5.0,0.9283184815699668,50.51698690213663,34.63738828148163,3.8231430894810465,0.002766971775865405
4,p,7,710,2,2,p,31.58063,40,1956.135000102222,8.41937,2,64,6,0,0,5.0,0.9283184815699668,50.51698690213663,34.63738828148163,2.2429907168012164,0.0006354184994327944
4,p,6,504,3,1,p,56.30039,58,2933.0700000282377,1.6996099999999998,2,65,6,0,0,5.0,0.9283184815699668,50.51698690213663,34.63738828148163,3.1184290616345294,0.0004747810616607967
4,p,2,652,2,0,p,37.72798,38,2162.330000195652,0.2720199999999977,2,66,6,0,0,5.0,0.9283184815699668,50.51698690213663,34.63738828148163,-4.015574344060873,0.0006601432884788261
4,p,6,843,1,0,p,19.19495,35,2282.5400000438094,15.805050000000001,2,67,6,0,0,5.0,0.9283184815699668,50.51698690213663,34.63738828148163,5.8231430894810465,0.00541510790594064
4,p,5,302,5,0,p,93.24415,83,2946.6850000899285,-10.244150000000005,2,68,6,0,0,5.0,0.9283184815699668,50.51698690213663,34.63738828148163,2.5257224158194305,0.00030838940810584274
4,p,3,710,2,0,p,31.58063,32,2660.8250001445413,0.4193700000000007,2,69,6,0,0,5.0,0.9283184815699668,50.51698690213663,34.63738828148163,-5.757009283198784,0.0017005931644374784
4,p,6,302,5,2,p,93.24415,75,1929.0849999524653,-18.244150000000005,2,70,6,0,0,5.0,0.9283184815699668,50.51698690213663,34.63738828148163,-5.4742775841805695,0.00767624230365366
4,p,3,550,3,1,p,50.0,47,1840.444999979809,-3.0,2,71,6,0,0,5.0,0.9283184815699668,50.51698690213663,34.63738828148163,-3.5169869021366296,0.000509894769380798
4,p,7,425,4,2,p,68.59844,58,3146.074999822304,-10.598439999999997,2,72,6,0,0,5.0,0.9283184815699668,50.51698690213663,34.63738828148163,-5.401013873076693,0.0023232215719587944
4,p,3,358,5,2,p,80.9736,69,1927.784999832511,-11.973600000000005,2,73,6,0,0,5.0,0.9283184815699668,50.51698690213663,34.63738828148163,-2.973880174519863,0.0015662308008468516
4,p,4,710,2,0,p,31.58063,37,1965.529999928549,5.419370000000001,2,74,6,0,0,5.0,0.9283184815699668,50.51698690213663,34.63738828148163,-0.7570092831987836,8.430294399613354e-08
4,p,7,358,5,0,p,80.9736,73,2880.210000090301,-7.973600000000005,2,75,6,0,0,5.0,0.9283184815699668,50.51698690213663,34.63738828148163,1.0261198254801371,5.85858635046197e-06
4,p,3,1000,1,2,p,6.87518,28,2220.810000086203,21.12482,2,76,6,0,0,5.0,0.9283184815699668,50.51698690213663,34.63738828148163,7.357638437146569,0.013833897357756366
4,p,4,302,5,2,p,93.24415,71,1462.5450000166893,-22.244150000000005,2,77,6,0,0,5.0,0.9283184815699668,50.51698690213663,34.63738828148163,-9.47427758418057,0.019656533693020187
4,p,6,652,2,1,p,37.72798,38,2860.465000150725,0.2720199999999977,2,78,6,0,0,5.0,0.9283184815699668,50.51698690213663,34.63738828148163,-4.015574344060873,0.0006601432884788261
4,p,5,390,4,0,p,74.79787,60,2121.4050000999123,-14.797870000000003,2,79,6,0,0,5.0,0.9283184815699668,50.51698690213663,34.63738828148163,-7.695659215869426,0.005984783941830736
4,p,7,843,1,1,p,19.19495,35,1515.625,15.805050000000001,2,80,6,0,0,5.0,0.9283184815699668,50.51698690213663,34.63738828148163,5.8231430894810465,0.00541510790594064
4,p,4,599,3,1,p,43.84378,45,2676.530000055209,1.1562199999999976,2,81,6,0,0,5.0,0.9283184815699668,50.51698690213663,34.63738828148163,-1.2522797935602767,3.570000827697202e-05
4,p,2,302,5,0,p,93.24415,80,1490.209999959916,-13.244150000000005,2,82,6,0,0,5.0,0.9283184815699668,50.51698690213663,34.63738828148163,-0.47427758418056953,0.0004787201996885807
4,p,5,550,3,1,p,50.0,47,1457.0999999996277,-3.0,2,83,6,0,0,5.0,0.9283184815699668,50.51698690213663,34.63738828148163,-3.5169869021366296,0.000509894769380798
4,p,3,425,4,0,p,68.59844,60,1935.4949998669329,-8.598439999999997,2,84,6,0,0,5.0,0.9283184815699668,50.51698690213663,34.63738828148163,-3.4010138730766926,0.0009970351752391679
4,p,2,843,1,1,p,19.19495,23,2127.910000039265,3.8050500000000014,2,85,6,0,0,5.0,0.9283184815699668,50.51698690213663,34.63738828148163,-6.1768569105189535,0.002737906208710576
4,p,5,652,2,0,p,37.72798,44,1552.6199999731034,6.272019999999998,2,86,6,0,0,5.0,0.9283184815699668,50.51698690213663,34.63738828148163,1.984425655939127,0.0003750787123565115
4,p,6,390,4,0,p,74.79787,61,1361.1899998504668,-13.797870000000003,2,87,6,0,0,5.0,0.9283184815699668,50.51698690213663,34.63738828148163,-6.695659215869426,0.004628432011295654
4,p,5,1000,1,0,p,6.87518,16,2112.320000072941,9.12482,2,88,6,0,0,5.0,0.9283184815699668,50.51698690213663,34.63738828148163,-4.642361562853431,0.0016155287959609748
4,p,2,550,3,1,p,50.0,56,1516.0649998579174,6.0,2,89,6,0,0,5.0,0.9283184815699668,50.51698690213663,34.63738828148163,5.48301309786337,0.0014966788729828882
4,p,4,390,4,2,p,74.79787,64,1504.399999976158,-10.797870000000003,2,90,6,0,0,5.0,0.9283184815699668,50.51698690213663,34.63738828148163,-3.6956592158694264,0.0016036954137857683
4,p,7,550,3,1,a,50.0,48,3330.620000138879,-2.0,3,91,6,0,0,5.0,0.9283184815699668,50.51698690213663,34.63738828148163,-2.5169869021366296,0.0002487975634991425
4,p,2,329,5,0,a,87.0672,73,2242.7749999333173,-14.0672,3,92,6,0,0,5.0,0.9283184815699668,50.51698690213663,34.63738828148163,-3.1952080813964585,0.002427758826516238
4,p,7,843,1,1,a,19.19495,33,1749.440000159666,13.805050000000001,3,93,6,0,0,5.0,0.9283184815699668,50.51698690213663,34.63738828148163,3.8231430894810465,0.002766971775865405
4,p,4,550,3,2,a,50.0,56,2262.0300000999123,6.0,3,94,6,0,0,5.0,0.9283184815699668,50.51698690213663,34.63738828148163,5.48301309786337,0.0014966788729828882
4,p,2,463,4,1,a,62.42097,54,1737.215000204742,-8.420969999999997,3,95,6,0,0,5.0,0.9283184815699668,50.51698690213663,34.63738828148163,-5.121586987781491,0.0015973475962380728
4,p,4,710,2,2,a,31.58063,35,2036.284999921918,3.4193700000000007,3,96,6,0,0,5.0,0.9283184815699668,50.51698690213663,34.63738828148163,-2.7570092831987836,0.00026637796919516714
4,p,6,302,5,2,a,93.24415,83,1769.7000000625849,-10.244150000000005,3,97,6,0,0,5.0,0.9283184815699668,50.51698690213663,34.63738828148163,2.5257224158194305,0.00030838940810584274
4,p,5,918,1,0,a,13.04687,29,1760.939999949187,15.95313,3,98,6,0,0,5.0,0.9283184815699668,50.51698690213663,34.63738828148163,4.082209087016334,0.0041475611099976595
4,p,4,425,4,0,a,68.59844,72,2062.029999913648,3.4015600000000035,3,99,6,0,0,5.0,0.9283184815699668,50.51698690213663,34.63738828148163,8.598986126923307,0.004646849824784248
4,p,3,599,3,0,a,43.84378,37,2155.235000187531,-6.843780000000002,3,100,6,0,0,5.0,0.9283184815699668,50.51698690213663,34.63738828148163,-9.252279793560277,0.003833584513406302
4,p,5,390,4,0,a,74.79787,72,2318.2550000492483,-2.797870000000003,3,101,6,0,0,5.0,0.9283184815699668,50.51698690213663,34.63738828148163,4.304340784130574,0.0011960719104587019
4,p,4,302,5,0,a,93.24415,84,1998.755000066012,-9.244150000000005,3,102,6,0,0,5.0,0.9283184815699668,50.51698690213663,34.63738828148163,3.5257224158194305,0.0009429762227109814
4,p,6,463,4,2,a,62.42097,54,1885.2699999697504,-8.420969999999997,3,103,6,0,0,5.0,0.9283184815699668,50.51698690213663,34.63738828148163,-5.121586987781491,0.0015973475962380728
4,p,7,302,5,0,a,93.24415,67,1462.5349999405444,-26.244150000000005,3,104,6,0,0,5.0,0.9283184815699668,50.51698690213663,34.63738828148163,-13.47427758418057,0.03716773504344846
4,p,4,918,1,1,a,13.04687,25,1989.5350001752377,11.95313,3,105,6,0,0,5.0,0.9283184815699668,50.51698690213663,34.63738828148163,0.08220908701633434,0.0002995005103225092
4,p,3,302,5,1,a,93.24415,84,1508.2849999889731,-9.244150000000005,3,106,6,0,0,5.0,0.9283184815699668,50.51698690213663,34.63738828148163,3.5257224158194305,0.0009429762227109814
4,p,6,652,2,2,a,37.72798,29,1903.165000025183,-8.727980000000002,3,107,6,0,0,5.0,0.9283184815699668,50.51698690213663,34.63738828148163,-13.015574344060873,0.008701822163030247
4,p,5,358,5,1,a,80.9736,81,1767.4250002019107,0.026399999999995316,3,108,6,0,0,5.0,0.9283184815699668,50.51698690213663,34.63738828148163,9.026119825480137,0.007467141397590538
4,p,6,599,3,2,a,43.84378,40,1684.330000076443,-3.8437800000000024,3,109,6,0,0,5.0,0.9283184815699668,50.51698690213663,34.63738828148163,-6.252279793560277,0.001675925790261863
4,p,5,710,2,1,a,31.58063,30,1702.2649999707935,-1.5806299999999993,3,110,6,0,0,5.0,0.9283184815699668,50.51698690213663,34.63738828148163,-7.757009283198784,0.003346586425176055
4,p,6,918,1,0,a,13.04687,32,2116.5599999949336,18.95313,3,111,6,0,0,5.0,0.9283184815699668,50.51698690213663,34.63738828148163,7.082209087016334,0.009944710666110475
4,p,3,710,2,1,a,31.58063,34,2085.914999945089,2.4193700000000007,3,112,6,0,0,5.0,0.9283184815699668,50.51698690213663,34.63738828148163,-3.7570092831987836,0.0006064797414938636
4,p,2,1000,1,0,a,6.87518,19,1801.3150000479072,12.12482,3,113,6,0,0,5.0,0.9283184815699668,50.51698690213663,34.63738828148163,-1.6423615628534307,5.48834357082858e-07
4,p,7,425,4,1,a,68.59844,65,5242.835000157356,-3.5984399999999965,3,114,6,0,0,5.0,0.9283184815699668,50.51698690213663,34.63738828148163,1.5989861269233074,9.968023132819298e-05
4,p,2,652,2,2,a,37.72798,41,2273.0149999260902,3.2720199999999977,3,115,6,0,0,5.0,0.9283184815699668,50.51698690213663,34.63738828148163,-1.015574344060873,1.0005533059805611e-05
4,p,5,504,3,0,a,56.30039,56,2715.349999954924,-0.30039000000000016,3,116,6,0,0,5.0,0.9283184815699668,50.51698690213663,34.63738828148163,1.1184290616345294,6.0892576138863254e-05
4,p,7,774,2,0,a,25.3549,37,2468.0900000967085,11.6451,3,117,6,0,0,5.0,0.9283184815699668,50.51698690213663,34.63738828148163,3.5558492461686697,0.0017989309993471487
4,p,3,463,4,0,a,62.42097,58,2076.30499987863,-4.420969999999997,3,118,6,0,0,5.0,0.9283184815699668,50.51698690213663,34.63738828148163,-1.121586987781491,9.843534782754246e-05
4,p,2,550,3,1,a,50.0,52,2329.1500001214445,2.0,3,119,6,0,0,5.0,0.9283184815699668,50.51698690213663,34.63738828148163,1.4830130978633704,0.00013125845012168432
4,p,3,1000,1,2,a,6.87518,31,1889.2900000792,24.12482,3,120,6,0,0,5.0,0.9283184815699668,50.51698690213663,34.63738828148163,10.35763843714657,0.0246711096682931
4,p,7,599,3,2,p,43.84378,47,2424.115000059828,3.1562199999999976,4,121,6,0,0,5.0,0.9283184815699668,50.51698690213663,34.63738828148163,0.7477202064397233,6.416492695589311e-05
4,p,3,329,5,0,p,87.0672,64,2974.2950000800192,-23.0672,4,122,6,0,0,5.0,0.9283184815699668,50.51698690213663,34.63738828148163,-12.195208081396459,0.024084756436830054
4,p,5,918,1,2,p,13.04687,28,3784.9200000055134,14.95313,4,123,6,0,0,5.0,0.9283184815699668,50.51698690213663,34.63738828148163,3.0822090870163343,0.002769673944885092
4,p,3,774,2,1,p,25.3549,32,2722.7900000289083,6.645099999999999,4,124,6,0,0,5.0,0.9283184815699668,50.51698690213663,34.63738828148163,-1.4441507538313303,1.777555281954437e-05
4,p,5,599,3,2,p,43.84378,46,3616.135000018403,2.1562199999999976,4,125,6,0,0,5.0,0.9283184815699668,50.51698690213663,34.63738828148163,-0.25227979356027674,1.0356653683698883e-06
4,p,3,918,1,1,p,13.04687,35,2039.1100000124425,21.95313,4,126,6,0,0,5.0,0.9283184815699668,50.51698690213663,34.63738828148163,10.082209087016334,0.018237092313385963
4,p,2,329,5,2,p,87.0672,76,2943.514999933541,-11.0672,4,127,6,0,0,5.0,0.9283184815699668,50.51698690213663,34.63738828148163,-0.1952080813964585,0.00019503544868378436
4,p,3,504,3,2,p,56.30039,47,3826.234999811277,-9.30039,4,128,6,0,0,5.0,0.9283184815699668,50.51698690213663,34.63738828148163,-7.881570938365471,0.0030397677272286767
4,p,4,918,1,1,p,13.04687,39,3959.999999962747,25.95313,4,129,6,0,0,5.0,0.9283184815699668,50.51698690213663,34.63738828148163,14.082209087016334,0.03317507331822855
4,p,3,463,4,2,p,62.42097,57,3039.579999865964,-5.420969999999997,4,130,6,0,0,5.0,0.9283184815699668,50.51698690213663,34.63738828148163,-2.121586987781491,0.000303902586187167
4,p,2,1000,1,2,p,6.87518,32,19004.629999864846,25.12482,4,131,6,0,0,5.0,0.9283184815699668,50.51698690213663,34.63738828148163,11.35763843714657,0.02897530223136872
4,p,4,652,2,1,p,37.72798,43,2772.344999946654,5.272019999999998,4,132,6,0,0,5.0,0.9283184815699668,50.51698690213663,34.63738828148163,0.9844256559391269,0.00014058643762252887
4,p,7,329,5,2,p,87.0672,64,2506.659999955445,-23.0672,4,133,6,0,0,5.0,0.9283184815699668,50.51698690213663,34.63738828148163,-12.195208081396459,0.024084756436830054
4,p,6,599,3,0,p,43.84378,47,2292.959999991581,3.1562199999999976,4,134,6,0,0,5.0,0.9283184815699668,50.51698690213663,34.63738828148163,0.7477202064397233,6.416492695589311e-05
4,p,7,918,1,2,p,13.04687,31,2446.4000000152737,17.95313,4,135,6,0,0,5.0,0.9283184815699668,50.51698690213663,34.63738828148163,6.082209087016334,0.007735079470610351
4,p,6,463,4,2,p,62.42097,65,2713.340000016615,2.579030000000003,4,136,6,0,0,5.0,0.9283184815699668,50.51698690213663,34.63738828148163,5.878413012218509,0.001819700055846322
4,p,2,710,2,1,p,31.58063,41,2053.2100000418723,9.41937,4,137,6,0,0,5.0,0.9283184815699668,50.51698690213663,34.63738828148163,3.2429907168012164,0.0011231364838265418
4,p,6,918,1,1,p,13.04687,34,1867.375000147149,20.95313,4,138,6,0,0,5.0,0.9283184815699668,50.51698690213663,34.63738828148163,9.082209087016334,0.015195717087498284
4,p,2,463,4,2,p,62.42097,55,3359.245000174269,-7.420969999999997,4,139,6,0,0,5.0,0.9283184815699668,50.51698690213663,34.63738828148163,-4.121586987781491,0.0010533587103924325
4,p,6,710,2,0,p,31.58063,39,3042.2850002069026,7.419370000000001,4,140,6,0,0,5.0,0.9283184815699668,50.51698690213663,34.63738828148163,1.2429907168012164,0.00028567047448778757
4,p,4,329,5,0,p,87.0672,78,2892.1599998138845,-9.0672,4,141,6,0,0,5.0,0.9283184815699668,50.51698690213663,34.63738828148163,1.8047919186035415,9.162981501922771e-05
4,p,7,774,2,1,p,25.3549,35,2771.180000156164,9.6451,4,142,6,0,0,5.0,0.9283184815699668,50.51698690213663,34.63738828148163,1.5558492461686697,0.0005646251105630106
4,p,5,358,5,2,p,80.9736,68,3191.8700002133846,-12.973600000000005,4,143,6,0,0,5.0,0.9283184815699668,50.51698690213663,34.63738828148163,-3.973880174519863,0.00250747110656641
4,p,2,599,3,0,p,43.84378,48,5383.075000019744,4.156219999999998,4,144,6,0,0,5.0,0.9283184815699668,50.51698690213663,34.63738828148163,1.7477202064397233,0.00022508779303954168
4,p,5,774,2,1,p,25.3549,31,4001.24999997206,5.645099999999999,4,145,6,0,0,5.0,0.9283184815699668,50.51698690213663,34.63738828148163,-2.4441507538313303,0.00018338817368711958
4,p,7,463,4,0,p,62.42097,60,2774.205000139773,-2.420969999999997,4,146,6,0,0,5.0,0.9283184815699668,50.51698690213663,34.63738828148163,0.878413012218509,2.6022518594309557e-05
4,p,4,504,3,0,p,56.30039,55,2009.9149998277423,-1.3003900000000002,4,147,6,0,0,5.0,0.9283184815699668,50.51698690213663,34.63738828148163,0.11842906163452938,6.566162851242239e-07
4,p,5,425,4,2,p,68.59844,69,2389.10000002943,0.40156000000000347,4,148,6,0,0,5.0,0.9283184815699668,50.51698690213663,34.63738828148163,5.598986126923307,0.001868996211170021
4,p,6,329,5,0,p,87.0672,67,3165.2150000445545,-20.0672,4,149,6,0,0,5.0,0.9283184815699668,50.51698690213663,34.63738828148163,-9.195208081396459,0.01437261932058937
4,p,4,425,4,1,p,68.59844,71,2274.785000132397,2.4015600000000035,4,150,6,0,0,5.0,0.9283184815699668,50.51698690213663,34.63738828148163,7.598986126923307,0.0035827208460811385
4,p,4,599,3,1,a,43.84378,48,2755.8550001122057,4.156219999999998,5,151,6,0,0,5.0,0.9283184815699668,50.51698690213663,34.63738828148163,1.7477202064397233,0.00022508779303954168
4,p,5,1000,1,1,a,6.87518,26,1961.55000012368,19.12482,5,152,6,0,0,5.0,0.9283184815699668,50.51698690213663,34.63738828148163,5.357638437146569,0.008338560299640287
4,p,2,302,5,2,a,93.24415,77,2053.2100000418723,-16.244150000000005,5,153,6,0,0,5.0,0.9283184815699668,50.51698690213663,34.63738828148163,-3.4742775841805695,0.0037601878443685515
4,p,3,550,3,1,a,50.0,48,2560.344999888912,-2.0,5,154,6,0,0,5.0,0.9283184815699668,50.51698690213663,34.63738828148163,-2.5169869021366296,0.0002487975634991425
4,p,2,774,2,0,a,25.3549,29,2155.70000000298,3.6450999999999993,5,155,6,0,0,5.0,0.9283184815699668,50.51698690213663,34.63738828148163,-4.44415075383133,0.001036457125595366
4,p,3,358,5,2,a,80.9736,74,1205.2499998826534,-6.973600000000005,5,156,6,0,0,5.0,0.9283184815699668,50.51698690213663,34.63738828148163,2.026119825480137,0.00016691278482182568
4,p,2,918,1,2,a,13.04687,31,1206.705000018701,17.95313,5,157,6,0,0,5.0,0.9283184815699668,50.51698690213663,34.63738828148163,6.082209087016334,0.007735079470610351
4,p,6,390,4,1,a,74.79787,65,2649.3499998468906,-9.797870000000003,5,158,6,0,0,5.0,0.9283184815699668,50.51698690213663,34.63738828148163,-2.6956592158694264,0.0009435562793142591
4,p,4,1000,1,0,a,6.87518,32,4526.240000035614,25.12482,5,159,6,0,0,5.0,0.9283184815699668,50.51698690213663,34.63738828148163,11.35763843714657,0.02897530223136872
4,p,2,390,4,0,a,74.79787,71,2056.605000048876,-3.797870000000003,5,160,6,0,0,5.0,0.9283184815699668,50.51698690213663,34.63738828148163,3.3043407841305736,0.0006378386518189592
4,p,7,918,1,2,a,13.04687,27,2078.334999969229,13.95313,5,161,6,0,0,5.0,0.9283184815699668,50.51698690213663,34.63738828148163,2.0822090870163343,0.0016690347899017124
4,p,6,504,3,1,a,56.30039,54,1722.8900000918657,-2.30039,5,162,6,0,0,5.0,0.9283184815699668,50.51698690213663,34.63738828148163,-0.8815709383654706,3.8226178369536964e-05
4,p,7,710,2,1,a,31.58063,45,2077.4350001011044,13.41937,5,163,6,0,0,5.0,0.9283184815699668,50.51698690213663,34.63738828148163,7.242990716801216,0.004453708015888938
4,p,4,390,4,2,a,74.79787,72,8691.534999990836,-2.797870000000003,5,164,6,0,0,5.0,0.9283184815699668,50.51698690213663,34.63738828148163,4.304340784130574,0.0011960719104587019
4,p,6,329,5,1,a,87.0672,78,2738.069999963045,-9.0672,5,165,6,0,0,5.0,0.9283184815699668,50.51698690213663,34.63738828148163,1.8047919186035415,9.162981501922771e-05
4,p,7,390,4,0,a,74.79787,72,3573.6849999520928,-2.797870000000003,5,166,6,0,0,5.0,0.9283184815699668,50.51698690213663,34.63738828148163,4.304340784130574,0.0011960719104587019
4,p,5,302,5,2,a,93.24415,74,2100.1150000374764,-19.244150000000005,5,167,6,0,0,5.0,0.9283184815699668,50.51698690213663,34.63738828148163,-6.4742775841805695,0.010152792342145753
4,p,7,599,3,2,a,43.84378,40,1506.2799998559058,-3.8437800000000024,5,168,6,0,0,5.0,0.9283184815699668,50.51698690213663,34.63738828148163,-6.252279793560277,0.001675925790261863
4,p,3,425,4,2,a,68.59844,70,3388.5999999474734,1.4015600000000035,5,169,6,0,0,5.0,0.9283184815699668,50.51698690213663,34.63738828148163,6.598986126923307,0.0026567696415430633
4,p,4,774,2,1,a,25.3549,37,2305.500000016764,11.6451,5,170,6,0,0,5.0,0.9283184815699668,50.51698690213663,34.63738828148163,3.5558492461686697,0.0017989309993471487
4,p,7,358,5,2,a,80.9736,65,1496.260000159964,-15.973600000000005,5,171,6,0,0,5.0,0.9283184815699668,50.51698690213663,34.63738828148163,-6.973880174519863,0.006653945428754193
4,p,5,774,2,0,a,25.3549,32,2159.6349999308586,6.645099999999999,5,172,6,0,0,5.0,0.9283184815699668,50.51698690213663,34.63738828148163,-1.4441507538313303,1.777555281954437e-05
4,p,4,358,5,1,a,80.9736,63,3157.0000001229346,-17.973600000000005,5,173,6,0,0,5.0,0.9283184815699668,50.51698690213663,34.63738828148163,-8.973880174519863,0.010520556147736969
4,p,5,599,3,2,a,43.84378,44,1135.424999985844,0.15621999999999758,5,174,6,0,0,5.0,0.9283184815699668,50.51698690213663,34.63738828148163,-2.2522797935602767,0.00016815795568169952
4,p,6,843,1,1,a,19.19495,27,1921.989999944344,7.805050000000001,5,175,6,0,0,5.0,0.9283184815699668,50.51698690213663,34.63738828148163,-2.1768569105189535,0.00010720941892823859
4,p,5,425,4,1,a,68.59844,71,1627.7550000231713,2.4015600000000035,5,176,6,0,0,5.0,0.9283184815699668,50.51698690213663,34.63738828148163,7.598986126923307,0.0035827208460811385
4,p,6,774,2,0,a,25.3549,29,1913.209999911487,3.6450999999999993,5,177,6,0,0,5.0,0.9283184815699668,50.51698690213663,34.63738828148163,-4.44415075383133,0.001036457125595366
4,p,3,843,1,0,a,19.19495,24,1775.7050001528114,4.805050000000001,5,178,6,0,0,5.0,0.9283184815699668,50.51698690213663,34.63738828148163,-5.1768569105189535,0.001749941634184458
4,p,2,504,3,0,a,56.30039,54,6168.99499995634,-2.30039,5,179,6,0,0,5.0,0.9283184815699668,50.51698690213663,34.63738828148163,-0.8815709383654706,3.8226178369536964e-05
4,p,3,652,2,2,a,37.72798,42,1430.7349999435246,4.272019999999998,5,180,6,0,0,5.0,0.9283184815699668,50.51698690213663,34.63738828148163,-0.015574344060873102,1.889537785696022e-05
5,a,3,504,3,1,a,56.30039,55,2645.2299999946263,-1.3003900000000002,0,1,4,2,0,0.0,0.021243966949406126,51.67968049685261,0.26415036611668885,3.2870344742142663,0.0008181035696617587
5,a,7,918,1,2,a,13.04687,41,3383.529999991879,27.95313,0,2,4,2,0,0.0,0.021243966949406126,51.67968049685261,0.26415036611668885,-10.484456857648759,0.01857512475032412
5,a,3,425,4,1,a,68.59844,56,2464.915000004112,-12.598439999999997,0,3,4,2,0,0.0,0.021243966949406126,51.67968049685261,0.26415036611668885,4.222063814416643,0.0018340575145421873
5,a,2,329,5,2,a,87.0672,45,2710.470000005444,-42.0672,0,4,4,2,0,0.0,0.021243966949406126,51.67968049685261,0.26415036611668885,-6.875506795030908,0.007749803569419043
5,a,7,504,3,2,a,56.30039,55,3969.7850000084154,-1.3003900000000002,0,5,4,2,0,0.0,0.021243966949406126,51.67968049685261,0.26415036611668885,3.2870344742142663,0.0008181035696617587
5,a,4,710,2,1,a,31.58063,46,2279.819999996107,14.41937,0,6,4,2,0,0.0,0.021243966949406126,51.67968049685261,0.26415036611668885,-5.582370828690209,0.002483282455136885
5,a,3,1000,1,0,a,6.87518,54,2925.9949999977835,47.12482,0,7,4,2,0,0.0,0.021243966949406126,51.67968049685261,0.26415036611668885,2.5481482631231955,0.0018346113525268093
5,a,5,710,2,0,a,31.58063,47,1721.8850000062955,15.41937,0,8,4,2,0,0.0,0.021243966949406126,51.67968049685261,0.26415036611668885,-4.582370828690209,0.0016305650554355527
5,a,2,390,4,1,a,74.79787,56,2510.980000006384,-18.797870000000003,0,9,4,2,0,0.0,0.021243966949406126,51.67968049685261,0.26415036611668885,4.189312149353995,0.00227606997474497
5,a,6,918,1,0,a,13.04687,45,2649.055000001681,31.95313,0,10,4,2,0,0.0,0.021243966949406126,51.67968049685261,0.26415036611668885,-6.484456857648759,0.006838261905798757
5,a,2,774,2,0,a,25.3549,55,2154.85500000068,29.6451,0,11,4,2,0,0.0,0.021243966949406126,51.67968049685261,0.26415036611668885,3.4505197331005277,0.0015939905356820783
5,a,6,550,3,1,a,50.0,44,2023.465000005672,-6.0,0,12,4,2,0,0.0,0.021243966949406126,51.67968049685261,0.26415036611668885,-7.679680496852612,0.0032617586224196393
5,a,4,843,1,0,a,19.19495,52,8064.689999999246,32.80505,0,13,4,2,0,0.0,0.021243966949406126,51.67968049685261,0.26415036611668885,0.4830628111720685,9.015060488157389e-05
5,a,7,710,2,2,a,31.58063,45,8070.275000005495,13.41937,0,14,4,2,0,0.0,0.021243966949406126,51.67968049685261,0.26415036611668885,-6.582370828690209,0.003514691365860951
5,a,5,425,4,2,a,68.59844,54,6844.900000010966,-14.598439999999997,0,15,4,2,0,0.0,0.021243966949406126,51.67968049685261,0.26415036611668885,2.222063814416643,0.0005715489035624918
5,a,6,329,5,2,a,87.0672,47,2317.014999993262,-40.0672,0,16,4,2,0,0.0,0.021243966949406126,51.67968049685261,0.26415036611668885,-4.875506795030908,0.003751049718020451
5,a,3,710,2,0,a,31.58063,46,2078.9499999955297,14.41937,0,17,4,2,0,0.0,0.021243966949406126,51.67968049685261,0.26415036611668885,-5.582370828690209,0.002483282455136885
5,a,4,425,4,1,a,68.59844,62,1631.200000003446,-6.5984399999999965,0,18,4,2,0,0.0,0.021243966949406126,51.67968049685261,0.26415036611668885,10.222063814416643,0.009916639231349613
5,a,3,358,5,2,a,80.9736,44,1950.0699999916835,-36.973600000000005,0,19,4,2,0,0.0,0.021243966949406126,51.67968049685261,0.26415036611668885,-7.8433142606793425,0.008115780006844566
5,a,2,1000,1,0,a,6.87518,62,1936.904999995022,55.12482,0,20,4,2,0,0.0,0.021243966949406126,51.67968049685261,0.26415036611668885,10.548148263123196,0.026426822936104766
5,a,4,358,5,2,a,80.9736,56,1907.600000005914,-24.973600000000005,0,21,4,2,0,0.0,0.021243966949406126,51.67968049685261,0.26415036611668885,4.1566857393206575,0.0028401189752929818
5,a,7,463,4,0,a,62.42097,35,1628.6499999987427,-27.420969999999997,0,22,4,2,0,0.0,0.021243966949406126,51.67968049685261,0.26415036611668885,-16.74530057895695,0.019747623823363477
5,a,2,550,3,0,a,50.0,58,2814.949999999953,8.0,0,23,4,2,0,0.0,0.021243966949406126,51.67968049685261,0.26415036611668885,6.320319503147388,0.002636836592244467
5,a,5,918,1,2,a,13.04687,59,5086.745000007795,45.95313,0,24,4,2,0,0.0,0.021243966949406126,51.67968049685261,0.26415036611668885,7.515543142351241,0.011002968360063021
5,a,6,463,4,0,a,62.42097,57,3503.2399999909103,-5.420969999999997,0,25,4,2,0,0.0,0.021243966949406126,51.67968049685261,0.26415036611668885,5.25469942104305,0.0022596041367363238
5,a,5,599,3,1,a,43.84378,42,3750.125000005937,-1.8437800000000024,0,26,4,2,0,0.0,0.021243966949406126,51.67968049685261,0.26415036611668885,-9.6471571456416,0.0055227112612804986
5,a,7,302,5,0,a,93.24415,63,4329.505000001518,-30.244150000000005,0,27,4,2,0,0.0,0.021243966949406126,51.67968049685261,0.26415036611668885,11.09186032379995,0.029060214745652672
5,a,4,550,3,2,a,50.0,56,3689.394999993965,6.0,0,28,4,2,0,0.0,0.021243966949406126,51.67968049685261,0.26415036611668885,4.320319503147388,0.0012856221584114978
5,a,5,358,5,2,a,80.9736,56,2950.33500000136,-24.973600000000005,0,29,4,2,0,0.0,0.021243966949406126,51.67968049685261,0.26415036611668885,4.1566857393206575,0.0028401189752929818
5,a,6,652,2,2,a,37.72798,36,10713.669999997364,-1.7279800000000023,0,30,4,2,0,0.0,0.021243966949406126,51.67968049685261,0.26415036611668885,-15.614847339644705,0.01711151967765671
5,a,4,550,3,0,p,50.0,56,17185.195000012754,6.0,1,31,4,2,0,0.0,0.021243966949406126,51.67968049685261,0.26415036611668885,4.320319503147388,0.0012856221584114978
5,a,7,774,2,1,p,25.3549,44,4638.214999999036,18.6451,1,32,4,2,0,0.0,0.021243966949406126,51.67968049685261,0.26415036611668885,-7.549480266899472,0.005901700322146829
5,a,3,504,3,2,p,56.30039,44,7893.035000000964,-12.30039,1,33,4,2,0,0.0,0.021243966949406126,51.67968049685261,0.26415036611668885,-7.712965525785734,0.003473925345095883
5,a,6,774,2,2,p,25.3549,44,11119.93000000075,18.6451,1,34,4,2,0,0.0,0.021243966949406126,51.67968049685261,0.26415036611668885,-7.549480266899472,0.005901700322146829
5,a,3,843,1,0,p,19.19495,56,3073.11500000651,36.80505,1,35,4,2,0,0.0,0.021243966949406126,51.67968049685261,0.26415036611668885,4.4830628111720685,0.0032786461135152593
5,a,4,463,4,0,p,62.42097,57,32649.895000009565,-5.420969999999997,1,36,4,2,0,0.0,0.021243966949406126,51.67968049685261,0.26415036611668885,5.25469942104305,0.0022596041367363238
5,a,2,774,2,1,p,25.3549,53,26174.015000011423,27.6451,1,37,4,2,0,0.0,0.021243966949406126,51.67968049685261,0.26415036611668885,1.4505197331005277,0.000349616052506339
5,a,3,463,4,0,p,62.42097,43,2614.659999992,-19.420969999999997,1,38,4,2,0,0.0,0.021243966949406126,51.67968049685261,0.26415036611668885,-8.74530057895695,0.005204212365215378
5,a,4,774,2,2,p,25.3549,46,14472.714999996242,20.6451,1,39,4,2,0,0.0,0.021243966949406126,51.67968049685261,0.26415036611668885,-5.549480266899472,0.003090885916620273
5,a,2,918,1,2,p,13.04687,45,5129.799999995157,31.95313,1,40,4,2,0,0.0,0.021243966949406126,51.67968049685261,0.26415036611668885,-6.484456857648759,0.006838261905798757
5,a,3,710,2,2,p,31.58063,53,33751.32500000473,21.41937,1,41,4,2,0,0.0,0.021243966949406126,51.67968049685261,0.26415036611668885,1.417629171309791,0.0002667823887049587
5,a,5,504,3,2,p,56.30039,55,3072.469999999157,-1.3003900000000002,1,42,4,2,0,0.0,0.021243966949406126,51.67968049685261,0.26415036611668885,3.2870344742142663,0.0008181035696617587
5,a,6,358,5,1,p,80.9736,57,18172.89499999606,-23.973600000000005,1,43,4,2,0,0.0,0.021243966949406126,51.67968049685261,0.26415036611668885,5.1566857393206575,0.004256405372767318
5,a,4,1000,1,0,p,6.87518,56,3257.920000003651,49.12482,1,44,4,2,0,0.0,0.021243966949406126,51.67968049685261,0.26415036611668885,4.5481482631231955,0.0052947590194559815
5,a,3,302,5,1,p,93.24415,40,2516.7599999986123,-53.244150000000005,1,45,4,2,0,0.0,0.021243966949406126,51.67968049685261,0.26415036611668885,-11.90813967620005,0.03015437799469893
5,a,6,599,3,2,p,43.84378,47,46964.61999999883,3.1562199999999976,1,46,4,2,0,0.0,0.021243966949406126,51.67968049685261,0.26415036611668885,-4.6471571456416,0.0011919973158362415
5,a,4,302,5,2,p,93.24415,45,20261.700000002747,-48.244150000000005,1,47,4,2,0,0.0,0.021243966949406126,51.67968049685261,0.26415036611668885,-6.908139676200051,0.009769603732184795
5,a,5,774,2,1,p,25.3549,41,5498.535000006086,15.6451,1,48,4,2,0,0.0,0.021243966949406126,51.67968049685261,0.26415036611668885,-10.549480266899472,0.011807583967395958
5,a,2,390,4,2,p,74.79787,58,1648.269999990589,-16.797870000000003,1,49,4,2,0,0.0,0.021243966949406126,51.67968049685261,0.26415036611668885,6.189312149353995,0.0047529148542329955
5,a,7,504,3,2,p,56.30039,43,2185.0149999954738,-13.30039,1,50,4,2,0,0.0,0.021243966949406126,51.67968049685261,0.26415036611668885,-8.712965525785734,0.004475399419486108
5,a,5,390,4,1,p,74.79787,57,1753.790000002482,-17.797870000000003,1,51,4,2,0,0.0,0.021243966949406126,51.67968049685261,0.26415036611668885,5.189312149353995,0.00340178009198502
5,a,7,358,5,0,p,80.9736,41,1742.5450000009732,-39.973600000000005,1,52,4,2,0,0.0,0.021243966949406126,51.67968049685261,0.26415036611668885,-10.843314260679342,0.015859050399706587
5,a,5,918,1,2,p,13.04687,56,1518.869999999879,42.95313,1,53,4,2,0,0.0,0.021243966949406126,51.67968049685261,0.26415036611668885,4.515543142351241,0.0041857575661595715
5,a,6,390,4,2,p,74.79787,46,2276.68999999878,-28.797870000000003,1,54,4,2,0,0.0,0.021243966949406126,51.67968049685261,0.26415036611668885,-5.810687850646005,0.003417324277780474
5,a,5,302,5,0,p,93.24415,54,1981.9699999934528,-39.244150000000005,1,55,4,2,0,0.0,0.021243966949406126,51.67968049685261,0.26415036611668885,2.091860323799949,0.0012826878209476731
5,a,6,843,1,2,p,19.19495,44,1757.6200000039537,24.80505,1,56,4,2,0,0.0,0.021243966949406126,51.67968049685261,0.26415036611668885,-7.5169371888279315,0.00740195660809116
5,a,2,358,5,2,p,80.9736,59,1652.2750000003723,-21.973600000000005,1,57,4,2,0,0.0,0.021243966949406126,51.67968049685261,0.26415036611668885,7.1566857393206575,0.007945558852379206
5,a,7,390,4,1,p,74.79787,44,1866.5649999893503,-30.797870000000003,1,58,4,2,0,0.0,0.021243966949406126,51.67968049685261,0.26415036611668885,-7.810687850646005,0.006350670878482702
5,a,2,550,3,2,p,50.0,56,1786.9099999952596,6.0,1,59,4,2,0,0.0,0.021243966949406126,51.67968049685261,0.26415036611668885,4.320319503147388,0.0012856221584114978
5,a,7,918,1,2,p,13.04687,43,2081.360000011045,29.95313,1,60,4,2,0,0.0,0.021243966949406126,51.67968049685261,0.26415036611668885,-8.484456857648759,0.011988538940599478
5,a,3,463,4,0,a,62.42097,54,1839.0199999994363,-8.420969999999997,2,61,4,2,0,0.0,0.021243966949406126,51.67968049685261,0.26415036611668885,2.2546994210430498,0.0004791957046303927
5,a,6,1000,1,1,a,6.87518,41,1399.424999995972,34.12482,2,62,4,2,0,0.0,0.021243966949406126,51.67968049685261,0.26415036611668885,-10.451851736876804,0.023022111488173576
5,a,5,774,2,1,a,25.3549,57,1838.789999994333,31.6451,2,63,4,2,0,0.0,0.021243966949406126,51.67968049685261,0.26415036611668885,5.450519733100528,0.0037395181052361066
5,a,3,329,5,0,a,87.0672,46,1237.685000000056,-41.0672,2,64,4,2,0,0.0,0.021243966949406126,51.67968049685261,0.26415036611668885,-5.875506795030908,0.005571038728566659
5,a,7,425,4,1,a,68.59844,58,3634.344999998575,-10.598439999999997,2,65,4,2,0,0.0,0.021243966949406126,51.67968049685261,0.26415036611668885,6.222063814416643,0.003812408772833273
5,a,2,710,2,2,a,31.58063,45,13027.749999993714,13.41937,2,66,4,2,0,0.0,0.021243966949406126,51.67968049685261,0.26415036611668885,-6.582370828690209,0.003514691365860951
5,a,5,329,5,1,a,87.0672,57,2618.2100000004284,-30.0672,2,67,4,2,0,0.0,0.021243966949406126,51.67968049685261,0.26415036611668885,5.124493204969092,0.005283830279398242
5,a,7,652,2,1,a,37.72798,55,2812.3349999950733,17.272019999999998,2,68,4,2,0,0.0,0.021243966949406126,51.67968049685261,0.26415036611668885,3.3851526603552955,0.0009971360013101543
5,a,2,463,4,0,a,62.42097,58,18566.220000007652,-4.420969999999997,2,69,4,2,0,0.0,0.021243966949406126,51.67968049685261,0.26415036611668885,6.25469942104305,0.0031453640273943198
5,a,4,774,2,0,a,25.3549,56,2056.049999999348,30.6451,2,70,4,2,0,0.0,0.021243966949406126,51.67968049685261,0.26415036611668885,4.450519733100528,0.0025541101846618063
5,a,2,843,1,1,a,19.19495,57,2726.949999996694,37.80505,2,71,4,2,0,0.0,0.021243966949406126,51.67968049685261,0.26415036611668885,5.4830628111720685,0.004788728168823523
5,a,6,599,3,2,a,43.84378,44,1817.8800000024492,0.15621999999999758,2,72,4,2,0,0.0,0.021243966949406126,51.67968049685261,0.26415036611668885,-7.6471571456416,0.003410454122070384
5,a,4,302,5,0,a,93.24415,56,1705.0549999987709,-37.244150000000005,2,73,4,2,0,0.0,0.021243966949406126,51.67968049685261,0.26415036611668885,4.091860323799949,0.004321507386294527
5,a,2,599,3,2,a,43.84378,59,1765.110000007553,15.156219999999998,2,74,4,2,0,0.0,0.021243966949406126,51.67968049685261,0.26415036611668885,7.3528428543584,0.0037173169218720566
5,a,5,1000,1,1,a,6.87518,39,1919.3950000046752,32.12482,2,75,4,2,0,0.0,0.021243966949406126,51.67968049685261,0.26415036611668885,-12.451851736876804,0.03300148996607098
5,a,4,599,3,1,a,43.84378,61,1712.5400000079535,17.156219999999998,2,76,4,2,0,0.0,0.021243966949406126,51.67968049685261,0.26415036611668885,9.3528428543584,0.005911404141029286
5,a,2,302,5,0,a,93.24415,56,37823.33499999368,-37.244150000000005,2,77,4,2,0,0.0,0.021243966949406126,51.67968049685261,0.26415036611668885,4.091860323799949,0.004321507386294527
5,a,3,774,2,2,a,25.3549,47,2052.6200000019744,21.6451,2,78,4,2,0,0.0,0.021243966949406126,51.67968049685261,0.26415036611668885,-4.549480266899472,0.0020234111212488505
5,a,6,302,5,0,a,93.24415,45,1979.984999998007,-48.244150000000005,2,79,4,2,0,0.0,0.021243966949406126,51.67968049685261,0.26415036611668885,-6.908139676200051,0.009769603732184795
5,a,7,550,3,1,a,50.0,56,2125.639999998501,6.0,2,80,4,2,0,0.0,0.021243966949406126,51.67968049685261,0.26415036611668885,4.320319503147388,0.0012856221584114978
5,a,4,1000,1,1,a,6.87518,43,1992.8599999984729,36.12482,2,81,4,2,0,0.0,0.021243966949406126,51.67968049685261,0.26415036611668885,-8.451851736876804,0.014834669829586372
5,a,3,599,3,0,a,43.84378,58,1773.4599999967031,14.156219999999998,2,82,4,2,0,0.0,0.021243966949406126,51.67968049685261,0.26415036611668885,6.3528428543584,0.0028102590928096483
5,a,7,1000,1,1,a,6.87518,47,1527.849999998463,40.12482,2,83,4,2,0,0.0,0.021243966949406126,51.67968049685261,0.26415036611668885,-4.4518517368768045,0.003835596970342613
5,a,5,463,4,1,a,62.42097,56,2156.7749999959487,-6.420969999999997,2,84,4,2,0,0.0,0.021243966949406126,51.67968049685261,0.26415036611668885,4.25469942104305,0.0015199894527230034
5,a,6,774,2,0,a,25.3549,58,1945.4650000114923,32.6451,2,85,4,2,0,0.0,0.021243966949406126,51.67968049685261,0.26415036611668885,6.450519733100528,0.005150214297404978
5,a,4,390,4,0,a,74.79787,57,1152.9149999986405,-17.797870000000003,2,86,4,2,0,0.0,0.021243966949406126,51.67968049685261,0.26415036611668885,5.189312149353995,0.00340178009198502
5,a,5,550,3,2,a,50.0,59,1568.995000008959,9.0,2,87,4,2,0,0.0,0.021243966949406126,51.67968049685261,0.26415036611668885,7.320319503147388,0.003492504935357487
5,a,7,358,5,2,a,80.9736,36,1576.2050000047311,-44.973600000000005,2,88,4,2,0,0.0,0.021243966949406126,51.67968049685261,0.26415036611668885,-15.843314260679342,0.03447503895223139
5,a,3,843,1,1,a,19.19495,57,1973.3200000047216,37.80505,2,89,4,2,0,0.0,0.021243966949406126,51.67968049685261,0.26415036611668885,5.4830628111720685,0.004788728168823523
5,a,6,425,4,1,a,68.59844,53,10329.949999999257,-15.598439999999997,2,90,4,2,0,0.0,0.021243966949406126,51.67968049685261,0.26415036611668885,1.222063814416643,0.00020873559081441544
5,a,4,358,5,1,p,80.9736,55,1860.4449999984356,-25.973600000000005,3,91,4,2,0,0.0,0.021243966949406126,51.67968049685261,0.26415036611668885,3.1566857393206575,0.001709359472706384
5,a,6,652,2,1,p,37.72798,54,2049.66000000434,16.272019999999998,3,92,4,2,0,0.0,0.021243966949406126,51.67968049685261,0.26415036611668885,2.3851526603552955,0.0005304130905619011
5,a,5,358,5,2,p,80.9736,60,1648.579999993788,-20.973600000000005,3,93,4,2,0,0.0,0.021243966949406126,51.67968049685261,0.26415036611668885,8.156685739320658,0.010218425934516759
5,a,6,425,4,1,p,68.59844,56,1903.6550000018904,-12.598439999999997,3,94,4,2,0,0.0,0.021243966949406126,51.67968049685261,0.26415036611668885,4.222063814416643,0.0018340575145421873
5,a,5,550,3,1,p,50.0,59,1379.5600000009872,9.0,3,95,4,2,0,0.0,0.021243966949406126,51.67968049685261,0.26415036611668885,7.320319503147388,0.003492504935357487
5,a,7,463,4,0,p,62.42097,56,1757.1400000015274,-6.420969999999997,3,96,4,2,0,0.0,0.021243966949406126,51.67968049685261,0.26415036611668885,4.25469942104305,0.0015199894527230034
5,a,2,504,3,0,p,56.30039,60,1486.2950000097044,3.69961,3,97,4,2,0,0.0,0.021243966949406126,51.67968049685261,0.26415036611668885,8.287034474214266,0.004677816728014946
5,a,7,1000,1,0,p,6.87518,46,2268.8000000054017,39.12482,3,98,4,2,0,0.0,0.021243966949406126,51.67968049685261,0.26415036611668885,-5.4518517368768045,0.005913388877912225
5,a,4,599,3,1,p,43.84378,59,1521.7650000122376,15.156219999999998,3,99,4,2,0,0.0,0.021243966949406126,51.67968049685261,0.26415036611668885,7.3528428543584,0.0037173169218720566
5,a,3,425,4,1,p,68.59844,46,1723.7650000024587,-22.598439999999997,3,100,4,2,0,0.0,0.021243966949406126,51.67968049685261,0.26415036611668885,-5.777936185583357,0.0026799409327576133
5,a,2,1000,1,1,p,6.87518,54,2454.1049999971874,47.12482,3,101,4,2,0,0.0,0.021243966949406126,51.67968049685261,0.26415036611668885,2.5481482631231955,0.0018346113525268093
5,a,3,550,3,0,p,50.0,55,1572.6250000006985,5.0,3,102,4,2,0,0.0,0.021243966949406126,51.67968049685261,0.26415036611668885,3.320319503147388,0.000790076067691548
5,a,2,425,4,0,p,68.59844,44,1415.115000010701,-24.598439999999997,3,103,4,2,0,0.0,0.021243966949406126,51.67968049685261,0.26415036611668885,-7.777936185583357,0.004996645558334871
5,a,3,918,1,1,p,13.04687,59,1938.6200000005772,45.95313,3,104,4,2,0,0.0,0.021243966949406126,51.67968049685261,0.26415036611668885,7.515543142351241,0.011002968360063021
5,a,6,504,3,1,p,56.30039,59,1972.265000003856,2.69961,3,105,4,2,0,0.0,0.021243966949406126,51.67968049685261,0.26415036611668885,7.287034474214266,0.0036525288526213263
5,a,7,329,5,2,p,87.0672,41,1693.0450000071432,-46.0672,3,106,4,2,0,0.0,0.021243966949406126,51.67968049685261,0.26415036611668885,-10.875506795030908,0.020052621235890373
5,a,5,710,2,2,p,31.58063,55,1947.2450000031383,23.41937,3,107,4,2,0,0.0,0.021243966949406126,51.67968049685261,0.26415036611668885,3.417629171309791,0.0012417202546432954
5,a,6,329,5,0,p,87.0672,40,2007.5499999949243,-47.0672,3,108,4,2,0,0.0,0.021243966949406126,51.67968049685261,0.26415036611668885,-11.875506795030908,0.024025265228273654
5,a,5,425,4,2,p,68.59844,55,1771.995000002673,-13.598439999999997,3,109,4,2,0,0.0,0.021243966949406126,51.67968049685261,0.26415036611668885,3.222063814416643,0.0011133228781384156
5,a,3,329,5,0,p,87.0672,59,1872.830000007525,-28.0672,3,110,4,2,0,0.0,0.021243966949406126,51.67968049685261,0.26415036611668885,7.124493204969092,0.009895696355347948
5,a,4,710,2,0,p,31.58063,53,2035.7650000078136,21.41937,3,111,4,2,0,0.0,0.021243966949406126,51.67968049685261,0.26415036611668885,1.417629171309791,0.0002667823887049587
5,a,2,329,5,0,p,87.0672,43,1913.6099999886935,-44.0672,3,112,4,2,0,0.0,0.021243966949406126,51.67968049685261,0.26415036611668885,-8.875506795030908,0.013183660742042348
5,a,3,652,2,0,p,37.72798,55,1733.3099999960978,17.272019999999998,3,113,4,2,0,0.0,0.021243966949406126,51.67968049685261,0.26415036611668885,3.3851526603552955,0.0009971360013101543
5,a,4,918,1,2,p,13.04687,55,2052.1799999987707,41.95313,3,114,4,2,0,0.0,0.021243966949406126,51.67968049685261,0.26415036611668885,3.515543142351241,0.002631508355653708
5,a,7,599,3,1,p,43.84378,58,1732.5449999917764,14.156219999999998,3,115,4,2,0,0.0,0.021243966949406126,51.67968049685261,0.26415036611668885,6.3528428543584,0.0028102590928096483
5,a,6,1000,1,1,p,6.87518,46,1938.9200000003912,39.12482,3,116,4,2,0,0.0,0.021243966949406126,51.67968049685261,0.26415036611668885,-5.4518517368768045,0.005913388877912225
5,a,2,652,2,0,p,37.72798,56,1952.95500000054,18.272019999999998,3,117,4,2,0,0.0,0.021243966949406126,51.67968049685261,0.26415036611668885,4.3851526603552955,0.0016099531751026376
5,a,4,425,4,2,p,68.59844,45,1696.290000007255,-23.598439999999997,3,118,4,2,0,0.0,0.021243966949406126,51.67968049685261,0.26415036611668885,-6.777936185583357,0.003748812914632318
5,a,7,652,2,2,p,37.72798,56,2701.66000000597,18.272019999999998,3,119,4,2,0,0.0,0.021243966949406126,51.67968049685261,0.26415036611668885,4.3851526603552955,0.0016099531751026376
5,a,5,1000,1,0,p,6.87518,57,2134.130000005709,50.12482,3,120,4,2,0,0.0,0.021243966949406126,51.67968049685261,0.26415036611668885,5.5481482631231955,0.0076968091601618965
5,a,6,843,1,2,a,19.19495,45,1607.4549999902956,25.80505,4,121,4,2,0,0.0,0.021243966949406126,51.67968049685261,0.26415036611668885,-6.5169371888279315,0.005489839408280185
5,a,7,329,5,1,a,87.0672,58,2210.2849999936298,-29.0672,4,122,4,2,0,0.0,0.021243966949406126,51.67968049685261,0.26415036611668885,6.124493204969092,0.007410375402220007
5,a,4,463,4,2,a,62.42097,41,1964.175000000978,-21.420969999999997,4,123,4,2,0,0.0,0.021243966949406126,51.67968049685261,0.26415036611668885,-10.74530057895695,0.007963193989884347
5,a,7,774,2,0,a,25.3549,63,1729.510000004666,37.6451,4,124,4,2,0,0.0,0.021243966949406126,51.67968049685261,0.26415036611668885,11.450519733100528,0.015583019332167922
5,a,3,302,5,1,a,93.24415,61,2345.0099999899976,-32.244150000000005,4,125,4,2,0,0.0,0.021243966949406126,51.67968049685261,0.26415036611668885,9.09186032379995,0.01975346678890842
5,a,6,390,4,2,a,74.79787,38,1724.8649999964982,-36.79787,4,126,4,2,0,0.0,0.021243966949406126,51.67968049685261,0.26415036611668885,-13.810687850646005,0.020560902160779645
5,a,4,504,3,0,a,56.30039,56,2290.1999999885447,-0.30039000000000016,4,127,4,2,0,0.0,0.021243966949406126,51.67968049685261,0.26415036611668885,4.287034474214266,0.0013367009576094155
5,a,2,652,2,1,a,37.72798,54,1544.299999993993,16.272019999999998,4,128,4,2,0,0.0,0.021243966949406126,51.67968049685261,0.26415036611668885,2.3851526603552955,0.0005304130905619011
5,a,5,302,5,0,a,93.24415,58,1461.6700000041164,-35.244150000000005,4,129,4,2,0,0.0,0.021243966949406126,51.67968049685261,0.26415036611668885,6.091860323799949,0.009151163634897784
5,a,2,504,3,1,a,56.30039,56,4153.565000000643,-0.30039000000000016,4,130,4,2,0,0.0,0.021243966949406126,51.67968049685261,0.26415036611668885,4.287034474214266,0.0013367009576094155
5,a,3,918,1,2,a,13.04687,54,1931.6249999974389,40.95313,4,131,4,2,0,0.0,0.021243966949406126,51.67968049685261,0.26415036611668885,2.515543142351241,0.001436336338878821
5,a,2,358,5,1,a,80.9736,41,1573.0050000129268,-39.973600000000005,4,132,4,2,0,0.0,0.021243966949406126,51.67968049685261,0.26415036611668885,-10.843314260679342,0.015859050399706587
5,a,3,550,3,2,a,50.0,57,2667.6050000097603,7.0,4,133,4,2,0,0.0,0.021243966949406126,51.67968049685261,0.26415036611668885,5.320319503147388,0.0019012089999291375
5,a,7,390,4,2,a,74.79787,56,1726.0200000018813,-18.797870000000003,4,134,4,2,0,0.0,0.021243966949406126,51.67968049685261,0.26415036611668885,4.189312149353995,0.00227606997474497
5,a,3,652,2,1,a,37.72798,46,2027.1050000009127,8.272019999999998,4,135,4,2,0,0.0,0.021243966949406126,51.67968049685261,0.26415036611668885,-5.6148473396447045,0.002056023274168164
5,a,2,425,4,2,a,68.59844,54,1742.484999995213,-14.598439999999997,4,136,4,2,0,0.0,0.021243966949406126,51.67968049685261,0.26415036611668885,2.222063814416643,0.0005715489035624918
5,a,7,843,1,0,a,19.19495,58,1541.855000003241,38.80505,4,137,4,2,0,0.0,0.021243966949406126,51.67968049685261,0.26415036611668885,6.4830628111720685,0.006583993495391722
5,a,6,504,3,0,a,56.30039,58,1519.9250000005122,1.6996099999999998,4,138,4,2,0,0.0,0.021243966949406126,51.67968049685261,0.26415036611668885,6.287034474214266,0.0027539135990891995
5,a,4,918,1,2,a,13.04687,56,2070.210000005318,42.95313,4,139,4,2,0,0.0,0.021243966949406126,51.67968049685261,0.26415036611668885,4.515543142351241,0.0041857575661595715
5,a,7,599,3,0,a,43.84378,40,1721.1949999909848,-3.8437800000000024,4,140,4,2,0,0.0,0.021243966949406126,51.67968049685261,0.26415036611668885,-11.6471571456416,0.008141597148533831
5,a,5,843,1,0,a,19.19495,57,2097.880000001285,37.80505,4,141,4,2,0,0.0,0.021243966949406126,51.67968049685261,0.26415036611668885,5.4830628111720685,0.004788728168823523
5,a,4,329,5,1,a,87.0672,46,1765.6699999934062,-41.0672,4,142,4,2,0,0.0,0.021243966949406126,51.67968049685261,0.26415036611668885,-5.875506795030908,0.005571038728566659
5,a,2,918,1,2,a,13.04687,57,1764.5399999890942,43.95313,4,143,4,2,0,0.0,0.021243966949406126,51.67968049685261,0.26415036611668885,5.515543142351241,0.0060990839703964125
5,a,5,390,4,0,a,74.79787,46,1555.0400000065565,-28.797870000000003,4,144,4,2,0,0.0,0.021243966949406126,51.67968049685261,0.26415036611668885,-5.810687850646005,0.003417324277780474
5,a,6,710,2,1,a,31.58063,55,1457.8700000131505,23.41937,4,145,4,2,0,0.0,0.021243966949406126,51.67968049685261,0.26415036611668885,3.417629171309791,0.0012417202546432954
5,a,5,504,3,0,a,56.30039,54,1886.0699999930805,-2.30039,4,146,4,2,0,0.0,0.021243966949406126,51.67968049685261,0.26415036611668885,2.2870344742142663,0.0004261788035755921
5,a,6,358,5,1,a,80.9736,41,1953.219999995781,-39.973600000000005,4,147,4,2,0,0.0,0.021243966949406126,51.67968049685261,0.26415036611668885,-10.843314260679342,0.015859050399706587
5,a,5,652,2,2,a,37.72798,56,2007.8500000089407,18.272019999999998,4,148,4,2,0,0.0,0.021243966949406126,51.67968049685261,0.26415036611668885,4.3851526603552955,0.0016099531751026376
5,a,3,390,4,2,a,74.79787,41,1405.6500000008382,-33.79787,4,149,4,2,0,0.0,0.021243966949406126,51.67968049685261,0.26415036611668885,-10.810687850646005,0.0124413756170955
5,a,4,652,2,2,a,37.72798,44,1398.105000000447,6.272019999999998,4,150,4,2,0,0.0,0.021243966949406126,51.67968049685261,0.26415036611668885,-7.6148473396447045,0.003898368450512032
5,a,4,652,2,1,p,37.72798,57,1858.3749999960417,19.272019999999998,5,151,4,2,0,0.0,0.021243966949406126,51.67968049685261,0.26415036611668885,5.3851526603552955,0.002368864611939351
5,a,3,390,4,2,p,74.79787,44,2122.5750000013504,-30.797870000000003,5,152,4,2,0,0.0,0.021243966949406126,51.67968049685261,0.26415036611668885,-7.810687850646005,0.006350670878482702
5,a,2,599,3,1,p,43.84378,55,2095.9549999972805,11.156219999999998,5,153,4,2,0,0.0,0.021243966949406126,51.67968049685261,0.26415036611668885,3.3528428543584,0.0008490287276872502
5,a,7,425,4,2,p,68.59844,46,1786.274999991292,-22.598439999999997,5,154,4,2,0,0.0,0.021243966949406126,51.67968049685261,0.26415036611668885,-5.777936185583357,0.0026799409327576133
5,a,5,843,1,1,p,19.19495,55,2014.6150000074413,35.80505,5,155,4,2,0,0.0,0.021243966949406126,51.67968049685261,0.26415036611668885,3.4830628111720685,0.002053747329466933
5,a,6,463,4,0,p,62.42097,46,1684.2150000010151,-16.420969999999997,5,156,4,2,0,0.0,0.021243966949406126,51.67968049685261,0.26415036611668885,-5.74530057895695,0.0021618289780469943
5,a,7,710,2,0,p,31.58063,53,1737.2699999979232,21.41937,5,157,4,2,0,0.0,0.021243966949406126,51.67968049685261,0.26415036611668885,1.417629171309791,0.0002667823887049587
5,a,3,1000,1,2,p,6.87518,46,1746.5200000004843,39.12482,5,158,4,2,0,0.0,0.021243966949406126,51.67968049685261,0.26415036611668885,-5.4518517368768045,0.005913388877912225
5,a,7,302,5,1,p,93.24415,57,1619.6300000010524,-36.244150000000005,5,159,4,2,0,0.0,0.021243966949406126,51.67968049685261,0.26415036611668885,5.091860323799949,0.006512480925189106
5,a,3,774,2,1,p,25.3549,42,1664.030000000028,16.6451,5,160,4,2,0,0.0,0.021243966949406126,51.67968049685261,0.26415036611668885,-9.549480266899472,0.00961366781405168
5,a,5,329,5,1,p,87.0672,54,1801.1100000003353,-33.0672,5,161,4,2,0,0.0,0.021243966949406126,51.67968049685261,0.26415036611668885,2.1244932049690917,0.0010568498927700256
5,a,2,710,2,2,p,31.58063,44,1992.070000007516,12.41937,5,162,4,2,0,0.0,0.021243966949406126,51.67968049685261,0.26415036611668885,-7.582370828690209,0.0047247917876077515
5,a,3,358,5,2,p,80.9736,54,2456.7400000086054,-26.973600000000005,5,163,4,2,0,0.0,0.021243966949406126,51.67968049685261,0.26415036611668885,2.1566857393206575,0.0008641268650075258
5,a,6,710,2,0,p,31.58063,55,1927.38000000827,23.41937,5,164,4,2,0,0.0,0.021243966949406126,51.67968049685261,0.26415036611668885,3.417629171309791,0.0012417202546432954
5,a,7,843,1,1,p,19.19495,37,1727.2450000019744,17.80505,5,165,4,2,0,0.0,0.021243966949406126,51.67968049685261,0.26415036611668885,-14.516937188827931,0.02877190860204622
5,a,6,302,5,2,p,93.24415,56,1800.7700000018813,-37.244150000000005,5,166,4,2,0,0.0,0.021243966949406126,51.67968049685261,0.26415036611668885,4.091860323799949,0.004321507386294527
5,a,2,463,4,1,p,62.42097,42,1441.2500000037253,-20.420969999999997,5,167,4,2,0,0.0,0.021243966949406126,51.67968049685261,0.26415036611668885,-9.74530057895695,0.006510630574227524
5,a,4,329,5,0,p,87.0672,55,1900.50000000326,-32.0672,5,168,4,2,0,0.0,0.021243966949406126,51.67968049685261,0.26415036611668885,3.1244932049690917,0.0021070675246732526
5,a,7,550,3,0,p,50.0,44,2362.450000000652,-6.0,5,169,4,2,0,0.0,0.021243966949406126,51.67968049685261,0.26415036611668885,-7.679680496852612,0.0032617586224196393
5,a,4,390,4,1,p,74.79787,55,1875.865000009071,-19.797870000000003,5,170,4,2,0,0.0,0.021243966949406126,51.67968049685261,0.26415036611668885,3.189312149353995,0.0013757845025128468
5,a,5,599,3,0,p,43.84378,43,2115.575000003446,-0.8437800000000024,5,171,4,2,0,0.0,0.021243966949406126,51.67968049685261,0.26415036611668885,-8.6471571456416,0.004403254098170041
5,a,2,843,1,0,p,19.19495,56,1898.2299999915997,36.80505,5,172,4,2,0,0.0,0.021243966949406126,51.67968049685261,0.26415036611668885,4.4830628111720685,0.0032786461135152593
5,a,4,504,3,2,p,56.30039,45,1604.9650000059046,-11.30039,5,173,4,2,0,0.0,0.021243966949406126,51.67968049685261,0.26415036611668885,-6.712965525785734,0.0025991238925671487
5,a,5,652,2,0,p,37.72798,60,1922.6950000012291,22.272019999999998,5,174,4,2,0,0.0,0.021243966949406126,51.67968049685261,0.26415036611668885,8.385152660355295,0.005522164500714873
5,a,4,843,1,1,p,19.19495,58,1681.589999992866,38.80505,5,175,4,2,0,0.0,0.021243966949406126,51.67968049685261,0.26415036611668885,6.4830628111720685,0.006583993495391722
5,a,2,302,5,1,p,93.24415,55,2552.0499999984168,-38.244150000000005,5,176,4,2,0,0.0,0.021243966949406126,51.67968049685261,0.26415036611668885,3.091860323799949,0.0025782430182140497
5,a,6,550,3,0,p,50.0,54,1860.4150000028312,4.0,5,177,4,2,0,0.0,0.021243966949406126,51.67968049685261,0.26415036611668885,2.320319503147388,0.00041457072776928853
5,a,5,463,4,0,p,62.42097,55,1557.8700000043027,-7.420969999999997,5,178,4,2,0,0.0,0.021243966949406126,51.67968049685261,0.26415036611668885,3.2546994210430498,0.0009265199753543599
5,a,3,599,3,1,p,43.84378,54,1557.6949999956414,10.156219999999998,5,179,4,2,0,0.0,0.021243966949406126,51.67968049685261,0.26415036611668885,2.3528428543584,0.0004485996466680589
5,a,6,918,1,0,p,13.04687,44,1958.3100000014529,30.95313,5,180,4,2,0,0.0,0.021243966949406126,51.67968049685261,0.26415036611668885,-7.484456857648759,0.00923386182633363
6,p,6,390,4,0,p,74.79787,73,2423.1000000145286,-1.7978700000000032,0,1,5,0,1,3.0,0.9333163138530041,46.74966830606129,47.24240139821777,2.820108654642624,0.0008495874322254386
6,p,7,774,2,1,p,25.3549,4,3108.735000016168,-21.3549,0,2,5,0,1,3.0,0.9333163138530041,46.74966830606129,47.24240139821777,-19.463796641324436,0.025282194346929843
6,p,4,463,4,1,p,62.42097,67,2196.469999966212,4.579030000000003,0,3,5,0,1,3.0,0.9333163138530041,46.74966830606129,47.24240139821777,8.514401495803533,0.003144735268281437
6,p,2,329,5,0,p,87.0672,90,3248.714999994263,2.9328000000000003,0,4,5,0,1,3.0,0.9333163138530041,46.74966830606129,47.24240139821777,8.227459233563962,0.008928194230277502
6,p,5,710,2,0,p,31.58063,25,3282.8049999661744,-6.580629999999999,0,5,5,0,1,3.0,0.9333163138530041,46.74966830606129,47.24240139821777,-4.3461626027048545,0.0012473090157035596
6,p,7,843,1,1,p,19.19495,0,2745.645000017248,-19.19495,0,6,5,0,1,3.0,0.9333163138530041,46.74966830606129,47.24240139821777,-17.64357697026778,0.027253787917223674
6,p,3,504,3,2,p,56.30039,55,2763.589999987744,-1.3003900000000002,0,7,5,0,1,3.0,0.9333163138530041,46.74966830606129,47.24240139821777,2.2974166155806017,0.00021302223675143735
6,p,5,843,1,2,p,19.19495,16,4183.964999974705,-3.1949499999999986,0,8,5,0,1,3.0,0.9333163138530041,46.74966830606129,47.24240139821777,-1.6435769702677803,0.0006360678706231975
6,p,3,425,4,0,p,68.59844,81,4645.625000004657,12.401560000000003,0,9,5,0,1,3.0,0.9333163138530041,46.74966830606129,47.24240139821777,16.677633405019733,0.014461355790045856
6,p,4,302,5,1,p,93.24415,89,4050.3800000296906,-4.244150000000005,0,10,5,0,1,3.0,0.9333163138530041,46.74966830606129,47.24240139821777,1.3911785816108306,0.0011100585090039509
6,p,7,599,3,1,p,43.84378,35,2121.365000028163,-8.843780000000002,0,11,5,0,1,3.0,0.9333163138530041,46.74966830606129,47.24240139821777,-5.93297671742576,0.0013095511181141922
6,p,2,652,2,1,p,37.72798,26,2908.2749999361117,-11.727980000000002,0,12,5,0,1,3.0,0.9333163138530041,46.74966830606129,47.24240139821777,-9.154476969560086,0.0036621949321879836
6,p,7,463,4,0,p,62.42097,61,2554.7549999319017,-1.420969999999997,0,13,5,0,1,3.0,0.9333163138530041,46.74966830606129,47.24240139821777,2.514401495803533,0.00034339246442058433
6,p,4,710,2,0,p,31.58063,43,2206.5599999623373,11.41937,0,14,5,0,1,3.0,0.9333163138530041,46.74966830606129,47.24240139821777,13.653837397295145,0.00796316993880042
6,p,6,1000,1,1,p,6.87518,3,2996.5650000376627,-3.8751800000000003,0,15,5,0,1,3.0,0.9333163138530041,46.74966830606129,47.24240139821777,-3.0032635705073165,0.0026810524379126816
6,p,7,358,5,1,p,80.9736,77,5192.480000085197,-3.9736000000000047,0,16,5,0,1,3.0,0.9333163138530041,46.74966830606129,47.24240139821777,0.9849853434867128,0.00035578033548772374
6,p,6,710,2,1,p,31.58063,17,2476.234999950975,-14.58063,0,17,5,0,1,3.0,0.9333163138530041,46.74966830606129,47.24240139821777,-12.346162602704855,0.008221870812549211
6,p,2,390,4,1,p,74.79787,71,3735.675000003539,-3.797870000000003,0,18,5,0,1,3.0,0.9333163138530041,46.74966830606129,47.24240139821777,0.820108654642624,0.0001850595889394407
6,p,5,504,3,2,p,56.30039,53,2093.499999959022,-3.30039,0,19,5,0,1,3.0,0.9333163138530041,46.74966830606129,47.24240139821777,0.29741661558060173,8.662333754492392e-06
6,p,3,918,1,2,p,13.04687,12,2419.169999891892,-1.0468700000000002,0,20,5,0,1,3.0,0.9333163138530041,46.74966830606129,47.24240139821777,0.16542063087745262,0.00016668696801090883
6,p,5,302,5,1,p,93.24415,96,2397.824999992736,2.7558499999999952,0,21,5,0,1,3.0,0.9333163138530041,46.74966830606129,47.24240139821777,8.39117858161083,0.012097386803954235
6,p,6,599,3,2,p,43.84378,39,2902.215000009164,-4.843780000000002,0,22,5,0,1,3.0,0.9333163138530041,46.74966830606129,47.24240139821777,-1.9329767174257597,0.0001660218415612343
6,p,3,358,5,1,p,80.9736,87,3347.850000020117,6.026399999999995,0,23,5,0,1,3.0,0.9333163138530041,46.74966830606129,47.24240139821777,10.984985343486713,0.011306399911474068
6,p,5,390,4,1,p,74.79787,67,2232.389999902807,-7.797870000000003,0,24,5,0,1,3.0,0.9333163138530041,46.74966830606129,47.24240139821777,-3.179891345357376,0.0003057036725624099
6,p,2,843,1,1,p,19.19495,12,2571.790000074543,-7.194949999999999,0,25,5,0,1,3.0,0.9333163138530041,46.74966830606129,47.24240139821777,-5.64357697026778,0.0036224861367568505
6,p,6,358,5,1,p,80.9736,88,2876.149999909103,7.026399999999995,0,26,5,0,1,3.0,0.9333163138530041,46.74966830606129,47.24240139821777,11.984985343486713,0.013243060734770428
6,p,4,599,3,1,p,43.84378,25,2054.3150000739843,-18.843780000000002,0,27,5,0,1,3.0,0.9333163138530041,46.74966830606129,47.24240139821777,-15.93297671742576,0.00891979306806713
6,p,3,652,2,0,p,37.72798,34,1692.0449999161065,-3.7279800000000023,0,28,5,0,1,3.0,0.9333163138530041,46.74966830606129,47.24240139821777,-1.1544769695600863,0.00010945374856671703
6,p,2,550,3,1,p,50.0,45,2373.0349999386817,-5.0,0,29,5,0,1,3.0,0.9333163138530041,46.74966830606129,47.24240139821777,-1.749668306061288,0.00010283080147084672
6,p,4,843,1,2,p,19.19495,9,2237.829999998212,-10.194949999999999,0,30,5,0,1,3.0,0.9333163138530041,46.74966830606129,47.24240139821777,-8.64357697026778,0.007467054975020547
6,p,2,550,3,0,a,50.0,47,2224.7950000455603,-3.0,1,31,5,0,1,3.0,0.9333163138530041,46.74966830606129,47.24240139821777,0.2503316939387119,1.4458258941319617e-06
6,p,4,329,5,0,a,87.0672,63,3270.659999921918,-24.0672,1,32,5,0,1,3.0,0.9333163138530041,46.74966830606129,47.24240139821777,-18.772540766436038,0.028982975624099763
6,p,3,504,3,2,a,56.30039,56,3885.440000100061,-0.30039000000000016,1,33,5,0,1,3.0,0.9333163138530041,46.74966830606129,47.24240139821777,3.2974166155806017,0.00041703071214319265
6,p,7,843,1,1,a,19.19495,4,2271.4949999935925,-15.194949999999999,1,34,5,0,1,3.0,0.9333163138530041,46.74966830606129,47.24240139821777,-13.64357697026778,0.016931346160057092
6,p,5,550,3,0,a,50.0,56,3170.459999935701,6.0,1,35,5,0,1,3.0,0.9333163138530041,46.74966830606129,47.24240139821777,9.250331693938712,0.002729626020599505
6,p,3,1000,1,0,a,6.87518,0,2459.859999944456,-6.87518,1,36,5,0,1,3.0,0.9333163138530041,46.74966830606129,47.24240139821777,-6.0032635705073165,0.007165248651428269
6,p,7,710,2,1,a,31.58063,42,2278.575000003912,10.41937,1,37,5,0,1,3.0,0.9333163138530041,46.74966830606129,47.24240139821777,12.653837397295145,0.006776078040461722
6,p,4,918,1,1,a,13.04687,29,3008.1099999370053,15.95313,1,38,5,0,1,3.0,0.9333163138530041,46.74966830606129,47.24240139821777,17.165420630877453,0.02366766752763744
