experiment,subject,first_type,pitch,ioi,tempo,loudness,type,true_score,response,rt,error,block,trial,test_correct,test_incorrect,test_skipped,extreme_responses,pearsonr,intercept,slope,residual,illusory_tempo,cooks
ITST,3,a,6,843,71.17437722419929,2,a,19.194949373496982,93,6767.955000046641,73.80505062650302,0,1,5,0,1,38.0,0.8606991052644332,44.033480377248644,42.74731239457823,75.3031820719898,239.07130356093276,0.20490712525042326
ITST,3,a,4,550,109.0909090909091,1,a,50.0,50,10831.839999882504,0.0,0,2,5,0,1,38.0,0.8606991052644332,44.033480377248644,42.74731239457823,5.966519622751356,10.158169031486391,0.00038964070870086537
ITST,3,a,6,463,129.58963282937364,1,a,62.42097125758927,54,5644.530000165105,-8.420971257589272,0,3,5,0,1,38.0,0.8606991052644332,44.033480377248644,42.74731239457823,-0.6527431490935598,-1.0528406892523758,4.1690287012471646e-05
ITST,3,a,3,843,71.17437722419929,1,a,19.194949373496982,16,6750.789999961853,-3.194949373496982,0,4,5,0,1,38.0,0.8606991052644332,44.033480377248644,42.74731239457823,-1.6968179280101978,-2.71388240208719,0.00037496917362076046
ITST,3,a,6,550,109.0909090909091,1,a,50.0,52,5728.25500019826,2.0,0,5,5,0,1,38.0,0.8606991052644332,44.033480377248644,42.74731239457823,7.966519622751356,13.78915408822135,0.0007669466415857642
ITST,3,a,7,1000,60.0,0,a,6.875176187496734,0,3273.884999798611,-6.875176187496734,0,6,5,0,1,38.0,0.8606991052644332,44.033480377248644,42.74731239457823,-7.164074067764176,-10.967203034128586,0.004581313415164199
ITST,3,a,5,390,153.84615384615384,1,a,74.79787473312055,100,5536.019999999553,25.20212526687945,0,7,5,0,1,38.0,0.8606991052644332,44.033480377248644,42.74731239457823,34.76566966398491,75.72058023540043,0.03460528768688034
ITST,3,a,2,843,71.17437722419929,0,a,19.194949373496982,0,9917.755000060424,-19.194949373496982,0,8,5,0,1,38.0,0.8606991052644332,44.033480377248644,42.74731239457823,-17.696817928010198,-24.9453521577704,0.013794136879607075
ITST,3,a,4,652,92.02453987730061,2,a,37.727982709047225,45,15976.07500012964,7.272017290952775,0,9,5,0,1,38.0,0.8606991052644332,44.033480377248644,42.74731239457823,11.458434759711835,20.417945924198072,0.0020314493108571745
ITST,3,a,7,599,100.1669449081803,0,a,43.84378078116181,52,7952.264999970794,8.156219218838189,0,10,5,0,1,38.0,0.8606991052644332,44.033480377248644,42.74731239457823,13.229756145095003,23.926733270626535,0.002457657458121588
ITST,3,a,5,358,167.5977653631285,0,a,80.97360155738828,76,8431.480000028387,-4.973601557388278,0,11,5,0,1,38.0,0.8606991052644332,44.033480377248644,42.74731239457823,5.485755187573915,9.302759674137656,0.0009194297646946051
ITST,3,a,3,710,84.50704225352112,0,a,31.580629700998873,14,2806.7200002260506,-17.580629700998873,0,12,5,0,1,38.0,0.8606991052644332,44.033480377248644,42.74731239457823,-14.285908851592303,-20.677300374342202,0.00570367044750284
ITST,3,a,6,329,182.370820668693,0,a,87.06720173383901,65,23767.565000103787,-22.067201733839013,0,13,5,0,1,38.0,0.8606991052644332,44.033480377248644,42.74731239457823,-10.723945419434017,-15.960953181308618,0.005904825175862047
ITST,3,a,2,550,109.0909090909091,2,a,50.0,49,6739.0899998135865,-1.0,0,14,5,0,1,38.0,0.8606991052644332,44.033480377248644,42.74731239457823,4.966519622751356,8.38635934109701,0.0002484430879323873
ITST,3,a,4,302,198.67549668874173,0,a,93.24415345434716,88,7938.2100000511855,-5.244153454347156,0,15,5,0,1,38.0,0.8606991052644332,44.033480377248644,42.74731239457823,6.995092883710214,12.010827074194996,0.0025974695871712732
ITST,3,a,2,710,84.50704225352112,2,a,31.580629700998873,9,6272.869999986142,-22.580629700998873,0,16,5,0,1,38.0,0.8606991052644332,44.033480377248644,42.74731239457823,-19.285908851592303,-26.854588736597467,0.009957120565620517
ITST,3,a,7,358,167.5977653631285,2,a,80.97360155738828,67,7550.909999990836,-13.973601557388278,0,17,5,0,1,38.0,0.8606991052644332,44.033480377248644,42.74731239457823,-3.514244812426085,-5.5390287419211415,0.0006191915828163485
ITST,3,a,5,599,100.1669449081803,2,a,43.84378078116181,51,5721.209999872372,7.156219218838189,0,18,5,0,1,38.0,0.8606991052644332,44.033480377248644,42.74731239457823,12.229756145095003,21.933466780835534,0.0020692842251459126
ITST,3,a,2,329,182.370820668693,1,a,87.06720173383901,91,5769.359999801964,3.9327982661609866,0,19,5,0,1,38.0,0.8606991052644332,44.033480377248644,42.74731239457823,15.276054580565983,28.107689693792242,0.010389803789367514
ITST,3,a,7,652,92.02453987730061,1,a,37.727982709047225,6,5139.744999818504,-31.727982709047225,0,20,5,0,1,38.0,0.8606991052644332,44.033480377248644,42.74731239457823,-27.541565240288165,-36.019137112322376,0.015888000780611096
ITST,3,a,4,390,153.84615384615384,0,a,74.79787473312055,72,4284.014999866486,-2.797874733120551,0,21,5,0,1,38.0,0.8606991052644332,44.033480377248644,42.74731239457823,6.765669663984909,11.594910274700112,0.0011167165913006005
ITST,3,a,5,843,71.17437722419929,1,a,19.194949373496982,0,3807.855000020936,-19.194949373496982,0,22,5,0,1,38.0,0.8606991052644332,44.033480377248644,42.74731239457823,-17.696817928010198,-24.9453521577704,0.013794136879607075
ITST,3,a,7,463,129.58963282937364,1,a,62.42097125758927,52,9843.485000077637,-10.420971257589272,0,23,5,0,1,38.0,0.8606991052644332,44.033480377248644,42.74731239457823,-2.65274314909356,-4.210221194824564,0.0002320648796396628
ITST,3,a,3,358,167.5977653631285,1,a,80.97360155738828,69,11115.624999860302,-11.973601557388278,0,24,5,0,1,38.0,0.8606991052644332,44.033480377248644,42.74731239457823,-1.5142448124260852,-2.4254478055430018,0.0001591542686427515
ITST,3,a,2,425,141.1764705882353,0,a,68.5984388693479,60,7143.300000112504,-8.598438869347902,0,25,5,0,1,38.0,0.8606991052644332,44.033480377248644,42.74731239457823,0.06585409476173965,0.10683937182039215,1.0296867685008056e-05
ITST,3,a,3,599,100.1669449081803,2,a,43.84378078116181,47,8284.690000116825,3.1562192188381886,0,26,5,0,1,38.0,0.8606991052644332,44.033480377248644,42.74731239457823,8.229756145095003,14.275887159517438,0.0008495979687124139
ITST,3,a,5,710,84.50704225352112,1,a,31.580629700998873,48,5424.865000182763,16.419370299001127,0,27,5,0,1,38.0,0.8606991052644332,44.033480377248644,42.74731239457823,19.714091148407697,37.66647995327388,0.008003784778256764
ITST,3,a,4,1000,60.0,1,a,6.875176187496734,0,3197.110000066459,-6.875176187496734,0,28,5,0,1,38.0,0.8606991052644332,44.033480377248644,42.74731239457823,-7.164074067764176,-10.967203034128586,0.004581313415164199
ITST,3,a,3,463,129.58963282937364,1,a,62.42097125758927,59,6798.210000153631,-3.4209712575892723,0,29,5,0,1,38.0,0.8606991052644332,44.033480377248644,42.74731239457823,4.34725685090644,7.303461163879982,0.00023979711680352663
ITST,3,a,6,774,77.51937984496124,1,a,25.354902613380577,11,8191.224999958649,-14.354902613380577,0,30,5,0,1,38.0,0.8606991052644332,44.033480377248644,42.74731239457823,-11.963246837636163,-17.632884326891105,0.005277923702674135
ITST,3,a,6,710,84.50704225352112,0,p,31.580629700998873,44,11389.109999872744,12.419370299001127,1,31,5,0,1,38.0,0.8606991052644332,44.033480377248644,42.74731239457823,15.714091148407697,29.020846730004656,0.0049075201842355655
ITST,3,a,2,390,153.84615384615384,1,p,74.79787473312055,73,6669.90500013344,-1.7978747331205511,1,32,5,0,1,38.0,0.8606991052644332,44.033480377248644,42.74731239457823,7.765669663984909,13.419170676330493,0.0015106890211035373
ITST,3,a,5,599,100.1669449081803,1,p,43.84378078116181,35,10200.385000091046,-8.843780781161811,1,33,5,0,1,38.0,0.8606991052644332,44.033480377248644,42.74731239457823,-3.7702438549049972,-5.930325565647261,0.0003950832839162493
ITST,3,a,6,1000,60.0,0,p,6.875176187496734,0,2920.1400000602007,-6.875176187496734,1,34,5,0,1,38.0,0.8606991052644332,44.033480377248644,42.74731239457823,-7.164074067764176,-10.967203034128586,0.004581313415164199
ITST,3,a,4,550,109.0909090909091,0,p,50.0,51,4413.704999955371,1.0,1,35,5,0,1,38.0,0.8606991052644332,44.033480377248644,42.74731239457823,6.966519622751356,11.9589427870777,0.0005624752265853243
ITST,3,a,5,358,167.5977653631285,0,p,80.97360155738828,78,3656.704999972135,-2.973601557388278,1,36,5,0,1,38.0,0.8606991052644332,44.033480377248644,42.74731239457823,7.485755187573915,12.905549104336409,0.001813910219469262
ITST,3,a,6,550,109.0909090909091,0,p,50.0,50,7733.424999983981,0.0,1,37,5,0,1,38.0,0.8606991052644332,44.033480377248644,42.74731239457823,5.966519622751356,10.158169031486391,0.00038964070870086537
ITST,3,a,5,918,65.359477124183,1,p,13.046873249910696,11,8456.13000006415,-2.0468732499106963,1,38,5,0,1,38.0,0.8606991052644332,44.033480377248644,42.74731239457823,-1.4405433143983863,-2.308769783056892,0.0004241582001321066
ITST,3,a,6,302,198.67549668874173,1,p,93.24415345434716,64,7894.554999889806,-29.244153454347156,1,39,5,0,1,38.0,0.8606991052644332,44.033480377248644,42.74731239457823,-17.004907116289786,-24.098548202367905,0.017789610616362393
ITST,3,a,2,550,109.0909090909091,2,p,50.0,51,7200.195000041276,1.0,1,40,5,0,1,38.0,0.8606991052644332,44.033480377248644,42.74731239457823,6.966519622751356,11.9589427870777,0.0005624752265853243
ITST,3,a,3,358,167.5977653631285,2,p,80.97360155738828,50,15264.680000022054,-30.973601557388278,1,41,5,0,1,38.0,0.8606991052644332,44.033480377248644,42.74731239457823,-20.514244812426085,-28.297046339505226,0.016682543180244307
ITST,3,a,7,599,100.1669449081803,2,p,43.84378078116181,48,7174.099999945611,4.156219218838189,1,42,5,0,1,38.0,0.8606991052644332,44.033480377248644,42.74731239457823,9.229756145095003,16.14397393240993,0.0011044485315004089
ITST,3,a,2,302,198.67549668874173,2,p,93.24415345434716,78,4782.070000190288,-15.244153454347156,1,43,5,0,1,38.0,0.8606991052644332,44.033480377248644,42.74731239457823,-3.004907116289786,-4.755654107515095,0.0006679246592850215
ITST,3,a,5,652,92.02453987730061,0,p,37.727982709047225,38,7031.994999852032,0.2720172909527747,1,44,5,0,1,38.0,0.8606991052644332,44.033480377248644,42.74731239457823,4.458434759711835,7.497076787074882,0.0002061491991789133
ITST,3,a,7,302,198.67549668874173,2,p,93.24415345434716,70,5675.300000002608,-23.244153454347156,1,45,5,0,1,38.0,0.8606991052644332,44.033480377248644,42.74731239457823,-11.004907116289786,-16.34294668685191,0.007619881083883788
ITST,3,a,5,425,141.1764705882353,0,p,68.5984388693479,41,5128.654999891296,-27.598438869347902,1,46,5,0,1,38.0,0.8606991052644332,44.033480377248644,42.74731239457823,-18.93414590523826,-26.436187477742823,0.00911578766230723
ITST,3,a,3,504,119.04761904761905,2,p,56.30039424560527,52,5798.155000200495,-4.300394245605268,1,47,5,0,1,38.0,0.8606991052644332,44.033480377248644,42.74731239457823,2.5800212022335245,4.272243019024655,4.6572547812913725e-05
ITST,3,a,4,843,71.17437722419929,2,p,19.194949373496982,2,5062.540000071749,-17.194949373496982,1,48,5,0,1,38.0,0.8606991052644332,44.033480377248644,42.74731239457823,-15.696817928010198,-22.471433907769832,0.011064494970466852
ITST,3,a,2,652,92.02453987730061,1,p,37.727982709047225,17,4460.870000068098,-20.727982709047225,1,49,5,0,1,38.0,0.8606991052644332,44.033480377248644,42.74731239457823,-16.541565240288165,-23.526146721843276,0.006050229176702855
ITST,3,a,4,425,141.1764705882353,1,p,68.5984388693479,72,3102.6099999435246,3.401561130652098,1,50,5,0,1,38.0,0.8606991052644332,44.033480377248644,42.74731239457823,12.06585409476174,21.609838119865493,0.0030322095100891104
ITST,3,a,3,843,71.17437722419929,0,p,19.194949373496982,0,2588.35000009276,-19.194949373496982,1,51,5,0,1,38.0,0.8606991052644332,44.033480377248644,42.74731239457823,-17.696817928010198,-24.9453521577704,0.013794136879607075
ITST,3,a,6,390,153.84615384615384,2,p,74.79787473312055,57,5422.139999922365,-17.79787473312055,1,52,5,0,1,38.0,0.8606991052644332,44.033480377248644,42.74731239457823,-8.234330336015091,-12.498965691561834,0.002336445401747827
ITST,3,a,2,1000,60.0,0,p,6.875176187496734,0,3987.7949999645352,-6.875176187496734,1,53,5,0,1,38.0,0.8606991052644332,44.033480377248644,42.74731239457823,-7.164074067764176,-10.967203034128586,0.004581313415164199
ITST,3,a,7,710,84.50704225352112,0,p,31.580629700998873,24,10685.65999995917,-7.580629700998873,1,54,5,0,1,38.0,0.8606991052644332,44.033480377248644,42.74731239457823,-4.285908851592303,-6.713610056626746,0.0007288488463301707
ITST,3,a,3,390,153.84615384615384,2,p,74.79787473312055,52,4309.79000008665,-22.79787473312055,1,55,5,0,1,38.0,0.8606991052644332,44.033480377248644,42.74731239457823,-13.234330336015091,-19.313145282897583,0.005713569695851601
ITST,3,a,4,710,84.50704225352112,2,p,31.580629700998873,41,8795.395000139251,9.419370299001127,1,56,5,0,1,38.0,0.8606991052644332,44.033480377248644,42.74731239457823,12.714091148407697,22.89483974306495,0.003079812747628444
ITST,3,a,7,390,153.84615384615384,0,p,74.79787473312055,64,2923.814999870956,-10.797874733120551,1,57,5,0,1,38.0,0.8606991052644332,44.033480377248644,42.74731239457823,-1.2343303360150912,-1.981568870607552,0.00010373173012449062
ITST,3,a,3,652,92.02453987730061,2,p,37.727982709047225,23,2994.265000103041,-14.727982709047225,1,58,5,0,1,38.0,0.8606991052644332,44.033480377248644,42.74731239457823,-10.541565240288165,-15.712057289631366,0.0026478419924268223
ITST,3,a,7,1000,60.0,2,p,6.875176187496734,0,3930.7550000958154,-6.875176187496734,1,59,5,0,1,38.0,0.8606991052644332,44.033480377248644,42.74731239457823,-7.164074067764176,-10.967203034128586,0.004581313415164199
ITST,3,a,4,302,198.67549668874173,0,p,93.24415345434716,100,3304.8199999611825,6.755846545652844,1,60,5,0,1,38.0,0.8606991052644332,44.033480377248644,42.74731239457823,18.995092883710214,36.07080828484853,0.020488176173299014
ITST,3,a,6,390,153.84615384615384,2,a,74.79787473312055,75,5355.0449998583645,0.20212526687944887,2,61,5,0,1,38.0,0.8606991052644332,44.033480377248644,42.74731239457823,9.765669663984909,17.157643433219892,0.0024768667621466924
ITST,3,a,3,550,109.0909090909091,1,a,50.0,50,18954.135000007227,0.0,2,62,5,0,1,38.0,0.8606991052644332,44.033480377248644,42.74731239457823,5.966519622751356,10.158169031486391,0.00038964070870086537
ITST,3,a,5,1000,60.0,0,a,6.875176187496734,5,7510.040000081062,-1.8751761874967343,2,63,5,0,1,38.0,0.8606991052644332,44.033480377248644,42.74731239457823,-2.164074067764176,-3.448190548495186,0.0008566625615217278
ITST,3,a,6,358,167.5977653631285,1,a,80.97360155738828,80,5714.704999933019,-0.9736015573882781,2,64,5,0,1,38.0,0.8606991052644332,44.033480377248644,42.74731239457823,9.485755187573915,16.627092093155717,0.0030093946228990855
ITST,3,a,7,918,65.359477124183,2,a,13.046873249910696,0,3956.2350001651794,-13.046873249910696,2,65,5,0,1,38.0,0.8606991052644332,44.033480377248644,42.74731239457823,-12.440543314398386,-18.267892385330036,0.009266314084313545
ITST,3,a,3,329,182.370820668693,0,a,87.06720173383901,78,5409.38499988988,-9.067201733839013,2,66,5,0,1,38.0,0.8606991052644332,44.033480377248644,42.74731239457823,2.276054580565983,3.7595688696276053,0.0001573459989607034
ITST,3,a,2,390,153.84615384615384,2,a,74.79787473312055,60,3658.15500007011,-14.797874733120551,2,67,5,0,1,38.0,0.8606991052644332,44.033480377248644,42.74731239457823,-5.234330336015091,-8.137253282329512,0.0010231023510346906
ITST,3,a,5,302,198.67549668874173,2,a,93.24415345434716,65,7751.550000160932,-28.244153454347156,2,68,5,0,1,38.0,0.8606991052644332,44.033480377248644,42.74731239457823,-16.004907116289786,-22.857774652751385,0.015799669848209442
ITST,3,a,4,774,77.51937984496124,0,a,25.354902613380577,24,12779.74999998696,-1.3549026133805775,2,69,5,0,1,38.0,0.8606991052644332,44.033480377248644,42.74731239457823,1.036753162363837,1.6953039664378844,3.3022188382598166e-06
ITST,3,a,2,302,198.67549668874173,2,a,93.24415345434716,82,11664.030000101777,-11.244153454347156,2,70,5,0,1,38.0,0.8606991052644332,44.033480377248644,42.74731239457823,0.995092883710214,1.626629857027482,2.3810569288227765e-05
ITST,3,a,4,599,100.1669449081803,0,a,43.84378078116181,43,7079.795000143349,-0.8437807811618114,2,71,5,0,1,38.0,0.8606991052644332,44.033480377248644,42.74731239457823,4.229756145095003,7.099213455212466,0.00016400239302963765
ITST,3,a,6,710,84.50704225352112,0,a,31.580629700998873,44,3391.3049998227507,12.419370299001127,2,72,5,0,1,38.0,0.8606991052644332,44.033480377248644,42.74731239457823,15.714091148407697,29.020846730004656,0.0049075201842355655
ITST,3,a,4,358,167.5977653631285,2,a,80.97360155738828,58,4080.03000007011,-22.973601557388278,2,73,5,0,1,38.0,0.8606991052644332,44.033480377248644,42.74731239457823,-12.514244812426085,-18.365509547780807,0.006414283361205232
ITST,3,a,5,504,119.04761904761905,0,a,56.30039424560527,49,4978.9399998262525,-7.300394245605268,2,74,5,0,1,38.0,0.8606991052644332,44.033480377248644,42.74731239457823,-0.4199787977664755,-0.6786816219765586,2.9511838992568473e-05
ITST,3,a,7,390,153.84615384615384,2,a,74.79787473312055,63,9979.185000061989,-11.797874733120551,2,75,5,0,1,38.0,0.8606991052644332,44.033480377248644,42.74731239457823,-2.2343303360150912,-3.5581201844023584,0.0002444579446333996
ITST,3,a,5,652,92.02453987730061,2,a,37.727982709047225,32,7225.315000163391,-5.727982709047225,2,76,5,0,1,38.0,0.8606991052644332,44.033480377248644,42.74731239457823,-1.5415652402881648,-2.4686638005432977,0.00014323628777370405
ITST,3,a,7,302,198.67549668874173,0,a,93.24415345434716,71,42063.18500009365,-22.244153454347156,2,77,5,0,1,38.0,0.8606991052644332,44.033480377248644,42.74731239457823,-10.004907116289786,-14.975391040267384,0.006337906346306481
ITST,3,a,2,652,92.02453987730061,1,a,37.727982709047225,35,13738.934999797491,-2.7279827090472253,2,78,5,0,1,38.0,0.8606991052644332,44.033480377248644,42.74731239457823,1.4584347597118352,2.3930346096794426,1.427738692246511e-06
ITST,3,a,7,504,119.04761904761905,1,a,56.30039424560527,49,10535.175000084564,-7.300394245605268,2,79,5,0,1,38.0,0.8606991052644332,44.033480377248644,42.74731239457823,-0.4199787977664755,-0.6786816219765586,2.9511838992568473e-05
ITST,3,a,4,918,65.359477124183,0,a,13.046873249910696,13,6544.070000061765,-0.0468732499106963,2,80,5,0,1,38.0,0.8606991052644332,44.033480377248644,42.74731239457823,0.5594566856016137,0.9112855265986755,4.675193590922279e-05
ITST,3,a,2,599,100.1669449081803,0,a,43.84378078116181,47,10428.56499995105,3.1562192188381886,2,81,5,0,1,38.0,0.8606991052644332,44.033480377248644,42.74731239457823,8.229756145095003,14.275887159517438,0.0008495979687124139
ITST,3,a,4,425,141.1764705882353,1,a,68.5984388693479,55,15131.8400001619,-13.598438869347902,2,82,5,0,1,38.0,0.8606991052644332,44.033480377248644,42.74731239457823,-4.93414590523826,-7.68902255360602,0.0007556925660603918
ITST,3,a,2,1000,60.0,2,a,6.875176187496734,0,5050.104999914765,-6.875176187496734,2,83,5,0,1,38.0,0.8606991052644332,44.033480377248644,42.74731239457823,-7.164074067764176,-10.967203034128586,0.004581313415164199
ITST,3,a,3,425,141.1764705882353,2,a,68.5984388693479,51,12100.115000037476,-17.598438869347902,2,84,5,0,1,38.0,0.8606991052644332,44.033480377248644,42.74731239457823,-8.93414590523826,-13.486271482712691,0.0022009848280262908
ITST,3,a,6,504,119.04761904761905,0,a,56.30039424560527,38,9555.709999985993,-18.30039424560527,2,85,5,0,1,38.0,0.8606991052644332,44.033480377248644,42.74731239457823,-11.419978797766476,-16.90410015232249,0.002537580534148131
ITST,3,a,3,1000,60.0,0,a,6.875176187496734,0,4947.760000126436,-6.875176187496734,2,86,5,0,1,38.0,0.8606991052644332,44.033480377248644,42.74731239457823,-7.164074067764176,-10.967203034128586,0.004581313415164199
ITST,3,a,7,710,84.50704225352112,2,a,31.580629700998873,36,5509.700000053272,4.419370299001127,2,87,5,0,1,38.0,0.8606991052644332,44.033480377248644,42.74731239457823,7.714091148407697,13.324352771382198,0.00097552132263329
ITST,3,a,6,918,65.359477124183,1,a,13.046873249910696,0,7697.270000120625,-13.046873249910696,2,88,5,0,1,38.0,0.8606991052644332,44.033480377248644,42.74731239457823,-12.440543314398386,-18.267892385330036,0.009266314084313545
ITST,3,a,5,425,141.1764705882353,0,a,68.5984388693479,95,10330.065000103788,26.401561130652098,2,89,5,0,1,38.0,0.8606991052644332,44.033480377248644,42.74731239457823,35.06585409476174,76.57798289910144,0.027808248772719247
ITST,3,a,3,652,92.02453987730061,2,a,37.727982709047225,48,11129.970000125468,10.272017290952775,2,90,5,0,1,38.0,0.8606991052644332,44.033480377248644,42.74731239457823,14.458434759711835,26.420485816245865,0.003391270803237589
ITST,3,a,3,425,141.1764705882353,1,p,68.5984388693479,56,17742.130000144243,-12.598438869347902,3,91,5,0,1,38.0,0.8606991052644332,44.033480377248644,42.74731239457823,-3.9341459052382604,-6.17999978207708,0.000512282792689138
ITST,3,a,4,918,65.359477124183,0,p,13.046873249910696,27,8377.504999982193,13.953126750089304,3,92,5,0,1,38.0,0.8606991052644332,44.033480377248644,42.74731239457823,14.559456685601614,26.627741044743935,0.008004057740433295
ITST,3,a,5,550,109.0909090909091,2,p,50.0,37,6530.225000111386,-13.0,3,93,5,0,1,38.0,0.8606991052644332,44.033480377248644,42.74731239457823,-7.033480377248644,-10.778469633673694,0.0010217496137571655
ITST,3,a,3,1000,60.0,2,p,6.875176187496734,0,4128.030000021681,-6.875176187496734,3,94,5,0,1,38.0,0.8606991052644332,44.033480377248644,42.74731239457823,-7.164074067764176,-10.967203034128586,0.004581313415164199
ITST,3,a,5,390,153.84615384615384,2,p,74.79787473312055,75,25214.09000013955,0.20212526687944887,3,95,5,0,1,38.0,0.8606991052644332,44.033480377248644,42.74731239457823,9.765669663984909,17.157643433219892,0.0024768667621466924
ITST,3,a,3,550,109.0909090909091,0,p,50.0,50,8286.929999943823,0.0,3,96,5,0,1,38.0,0.8606991052644332,44.033480377248644,42.74731239457823,5.966519622751356,10.158169031486391,0.00038964070870086537
ITST,3,a,6,918,65.359477124183,2,p,13.046873249910696,16,3327.4899998214096,2.9531267500893037,3,97,5,0,1,38.0,0.8606991052644332,44.033480377248644,42.74731239457823,3.5594566856016137,5.941466138652395,0.0001904070253394681
ITST,3,a,5,302,198.67549668874173,2,p,93.24415345434716,88,8392.559999832883,-5.244153454347156,3,98,5,0,1,38.0,0.8606991052644332,44.033480377248644,42.74731239457823,6.995092883710214,12.010827074194996,0.0025974695871712732
ITST,3,a,6,652,92.02453987730061,1,p,37.727982709047225,59,6225.865000160411,21.272017290952775,3,99,5,0,1,38.0,0.8606991052644332,44.033480377248644,42.74731239457823,25.458434759711835,51.10552198455669,0.011342039690493059
ITST,3,a,5,1000,60.0,0,p,6.875176187496734,0,3810.710000107065,-6.875176187496734,3,100,5,0,1,38.0,0.8606991052644332,44.033480377248644,42.74731239457823,-7.164074067764176,-10.967203034128586,0.004581313415164199
ITST,3,a,4,329,182.370820668693,1,p,87.06720173383901,75,3905.269999988377,-12.067201733839013,3,101,5,0,1,38.0,0.8606991052644332,44.033480377248644,42.74731239457823,-0.7239454194340169,-1.167013616591421,6.534974682774557e-05
ITST,3,a,5,774,77.51937984496124,2,p,25.354902613380577,27,9159.539999905974,1.6450973866194225,3,102,5,0,1,38.0,0.8606991052644332,44.033480377248644,42.74731239457823,4.036753162363837,6.764565978901748,0.0002110823345113933
ITST,3,a,4,599,100.1669449081803,1,p,43.84378078116181,50,9538.315000012515,6.156219218838189,3,103,5,0,1,38.0,0.8606991052644332,44.033480377248644,42.74731239457823,11.229756145095003,19.972260454291547,0.0017142916597171578
ITST,3,a,3,710,84.50704225352112,1,p,31.580629700998873,36,8206.135000102222,4.419370299001127,3,104,5,0,1,38.0,0.8606991052644332,44.033480377248644,42.74731239457823,7.714091148407697,13.324352771382198,0.00097552132263329
ITST,3,a,6,504,119.04761904761905,1,p,56.30039424560527,50,6691.339999902993,-6.300394245605268,3,105,5,0,1,38.0,0.8606991052644332,44.033480377248644,42.74731239457823,0.5800212022335245,0.9449403488529833,1.8140065106468325e-06
ITST,3,a,4,774,77.51937984496124,1,p,25.354902613380577,32,5302.069999976084,6.6450973866194225,3,106,5,0,1,38.0,0.8606991052644332,44.033480377248644,42.74731239457823,9.036753162363837,15.781064752115784,0.0017448829090472798
ITST,3,a,6,358,167.5977653631285,0,p,80.97360155738828,75,3118.6499998439103,-5.973601557388278,3,107,5,0,1,38.0,0.8606991052644332,44.033480377248644,42.74731239457823,4.485755187573915,7.544708587417226,0.0005850660180529648
ITST,3,a,2,599,100.1669449081803,0,p,43.84378078116181,46,10132.985000032932,2.1562192188381886,3,108,5,0,1,38.0,0.8606991052644332,44.033480377248644,42.74731239457823,7.229756145095003,12.437847130101185,0.00062812807347134
ITST,3,a,7,843,71.17437722419929,1,p,19.194949373496982,53,18195.48500003293,33.80505062650302,3,109,5,0,1,38.0,0.8606991052644332,44.033480377248644,42.74731239457823,35.3031820719898,77.25881189625895,0.043037940278316006
ITST,3,a,2,358,167.5977653631285,0,p,80.97360155738828,49,11823.469999944791,-31.973601557388278,3,110,5,0,1,38.0,0.8606991052644332,44.033480377248644,42.74731239457823,-21.514244812426085,-29.45033337434049,0.01830470509986126
ITST,3,a,6,463,129.58963282937364,1,p,62.42097125758927,71,17832.600000081584,8.579028742410728,3,111,5,0,1,38.0,0.8606991052644332,44.033480377248644,42.74731239457823,16.34725685090644,30.35229784223909,0.0046439630945089945
ITST,3,a,7,774,77.51937984496124,1,p,25.354902613380577,5,8479.579999810085,-20.354902613380577,3,112,5,0,1,38.0,0.8606991052644332,44.033480377248644,42.74731239457823,-17.963246837636163,-25.268899484535268,0.011096740475501354
ITST,3,a,2,463,129.58963282937364,0,p,62.42097125758927,50,13837.27000001818,-12.420971257589272,3,113,5,0,1,38.0,0.8606991052644332,44.033480377248644,42.74731239457823,-4.65274314909356,-7.266850433494175,0.0005765065148632042
ITST,3,a,3,302,198.67549668874173,0,p,93.24415345434716,63,11283.215000061318,-30.244153454347156,3,114,5,0,1,38.0,0.8606991052644332,44.033480377248644,42.74731239457823,-18.004907116289786,-25.319364860742347,0.019897545722944627
ITST,3,a,2,843,71.17437722419929,2,p,19.194949373496982,34,12740.020000142977,14.805050626503018,3,115,5,0,1,38.0,0.8606991052644332,44.033480377248644,42.74731239457823,16.303182071989802,30.25917198146101,0.008277495464595549
ITST,3,a,7,463,129.58963282937364,1,p,62.42097125758927,54,6015.9350000321865,-8.420971257589272,3,116,5,0,1,38.0,0.8606991052644332,44.033480377248644,42.74731239457823,-0.6527431490935598,-1.0528406892523758,4.1690287012471646e-05
ITST,3,a,2,710,84.50704225352112,0,p,31.580629700998873,43,6056.540000019595,11.419370299001127,3,117,5,0,1,38.0,0.8606991052644332,44.033480377248644,42.74731239457823,14.714091148407697,26.94564533088623,0.004251189990232357
ITST,3,a,7,550,109.0909090909091,0,p,50.0,49,5284.530000062659,-1.0,3,118,5,0,1,38.0,0.8606991052644332,44.033480377248644,42.74731239457823,4.966519622751356,8.38635934109701,0.0002484430879323873
ITST,3,a,4,390,153.84615384615384,2,p,74.79787473312055,62,7859.6000000834465,-12.797874733120551,3,119,5,0,1,38.0,0.8606991052644332,44.033480377248644,42.74731239457823,-3.2343303360150912,-5.1093138790597195,0.0004445951196214026
ITST,3,a,7,329,182.370820668693,1,p,87.06720173383901,67,6927.435000194237,-20.067201733839013,3,120,5,0,1,38.0,0.8606991052644332,44.033480377248644,42.74731239457823,-8.723945419434017,-13.190895128748748,0.003980483369709239
ITST,3,a,5,918,65.359477124183,2,a,13.046873249910696,27,2748.520000139252,13.953126750089304,4,121,5,0,1,38.0,0.8606991052644332,44.033480377248644,42.74731239457823,14.559456685601614,26.627741044743935,0.008004057740433295
ITST,3,a,2,504,119.04761904761905,1,a,56.30039424560527,50,4963.620000053197,-6.300394245605268,4,122,5,0,1,38.0,0.8606991052644332,44.033480377248644,42.74731239457823,0.5800212022335245,0.9449403488529833,1.8140065106468325e-06
ITST,3,a,7,329,182.370820668693,1,a,87.06720173383901,69,9273.730000015348,-18.067201733839013,4,123,5,0,1,38.0,0.8606991052644332,44.033480377248644,42.74731239457823,-6.723945419434017,-10.329531642524145,0.0024343649237294047
ITST,3,a,4,710,84.50704225352112,1,a,31.580629700998873,38,10739.615000085903,6.419370299001127,4,124,5,0,1,38.0,0.8606991052644332,44.033480377248644,42.74731239457823,9.714091148407697,17.059700182244125,0.0016759547472288442
ITST,3,a,5,329,182.370820668693,1,a,87.06720173383901,83,18752.61500012129,-4.067201733839013,4,125,5,0,1,38.0,0.8606991052644332,44.033480377248644,42.74731239457823,7.276054580565983,12.52228913027187,0.0022017898867138373
ITST,3,a,6,652,92.02453987730061,2,a,37.727982709047225,26,4557.584999827668,-11.727982709047225,4,126,5,0,1,38.0,0.8606991052644332,44.033480377248644,42.74731239457823,-7.541565240288165,-11.510509632805276,0.0014664434146409917
ITST,3,a,4,504,119.04761904761905,2,a,56.30039424560527,50,3389.075000071898,-6.300394245605268,4,127,5,0,1,38.0,0.8606991052644332,44.033480377248644,42.74731239457823,0.5800212022335245,0.9449403488529833,1.8140065106468325e-06
ITST,3,a,6,302,198.67549668874173,2,a,93.24415345434716,76,10999.354999978095,-17.244153454347156,4,128,5,0,1,38.0,0.8606991052644332,44.033480377248644,42.74731239457823,-5.004907116289786,-7.794878710643652,0.0016979477348590657
ITST,3,a,7,425,141.1764705882353,0,a,68.5984388693479,52,3287.569999927655,-16.598438869347902,4,129,5,0,1,38.0,0.8606991052644332,44.033480377248644,42.74731239457823,-7.93414590523826,-12.072017295465324,0.001768913787262683
ITST,3,a,6,1000,60.0,0,a,6.875176187496734,0,4219.150000018999,-6.875176187496734,4,130,5,0,1,38.0,0.8606991052644332,44.033480377248644,42.74731239457823,-7.164074067764176,-10.967203034128586,0.004581313415164199
ITST,3,a,7,774,77.51937984496124,0,a,25.354902613380577,2,8491.069999989122,-23.354902613380577,4,131,5,0,1,38.0,0.8606991052644332,44.033480377248644,42.74731239457823,-20.963246837636163,-28.817188427774433,0.014807711619594415
ITST,3,a,6,599,100.1669449081803,2,a,43.84378078116181,50,6106.830000178888,6.156219218838189,4,132,5,0,1,38.0,0.8606991052644332,44.033480377248644,42.74731239457823,11.229756145095003,19.972260454291547,0.0017142916597171578
ITST,3,a,7,843,71.17437722419929,1,a,19.194949373496982,33,5854.9599999096245,13.805050626503018,4,133,5,0,1,38.0,0.8606991052644332,44.033480377248644,42.74731239457823,15.303182071989802,28.16405307009929,0.007199602616202246
ITST,3,a,5,463,129.58963282937364,2,a,62.42097125758927,50,4148.829999845475,-12.420971257589272,4,134,5,0,1,38.0,0.8606991052644332,44.033480377248644,42.74731239457823,-4.65274314909356,-7.266850433494175,0.0005765065148632042
ITST,3,a,3,504,119.04761904761905,0,a,56.30039424560527,59,7733.160000061616,2.6996057543947316,4,135,5,0,1,38.0,0.8606991052644332,44.033480377248644,42.74731239457823,9.580021202233524,16.80549552180455,0.001254846608165005
ITST,3,a,2,463,129.58963282937364,1,a,62.42097125758927,41,12792.630000039935,-21.420971257589272,4,136,5,0,1,38.0,0.8606991052644332,44.033480377248644,42.74731239457823,-13.65274314909356,-19.858717181635107,0.0040330735254989775
ITST,3,a,3,774,77.51937984496124,1,a,25.354902613380577,37,17349.55000015907,11.645097386619423,4,137,5,0,1,38.0,0.8606991052644332,44.033480377248644,42.74731239457823,14.036753162363837,25.559026370066487,0.004763058960767329
ITST,3,a,2,918,65.359477124183,1,a,13.046873249910696,1,2316.695000045001,-12.046873249910696,4,138,5,0,1,38.0,0.8606991052644332,44.033480377248644,42.74731239457823,-11.440543314398386,-16.931804143525703,0.007989305407363093
ITST,3,a,3,302,198.67549668874173,2,a,93.24415345434716,100,4954.799999948591,6.755846545652844,4,139,5,0,1,38.0,0.8606991052644332,44.033480377248644,42.74731239457823,18.995092883710214,36.07080828484853,0.020488176173299014
ITST,3,a,2,774,77.51937984496124,0,a,25.354902613380577,13,7854.25000009127,-12.354902613380577,4,140,5,0,1,38.0,0.8606991052644332,44.033480377248644,42.74731239457823,-9.963246837636163,-14.917935732475629,0.003813318264430661
ITST,3,a,3,918,65.359477124183,2,a,13.046873249910696,31,12839.075000025332,17.953126750089304,4,141,5,0,1,38.0,0.8606991052644332,44.033480377248644,42.74731239457823,18.559456685601614,35.113013252381485,0.013684443216252978
ITST,3,a,7,550,109.0909090909091,2,a,50.0,50,5268.9450001344085,0.0,4,142,5,0,1,38.0,0.8606991052644332,44.033480377248644,42.74731239457823,5.966519622751356,10.158169031486391,0.00038964070870086537
ITST,3,a,4,843,71.17437722419929,2,a,19.194949373496982,35,3346.2400001008064,15.805050626503018,4,143,5,0,1,38.0,0.8606991052644332,44.033480377248644,42.74731239457823,17.303182071989802,32.38854014717756,0.009430548737695423
ITST,3,a,6,425,141.1764705882353,0,a,68.5984388693479,75,5697.189999977127,6.401561130652098,4,144,5,0,1,38.0,0.8606991052644332,44.033480377248644,42.74731239457823,15.06585409476174,27.671790920816537,0.004848907299772127
ITST,3,a,4,329,182.370820668693,1,a,87.06720173383901,71,14298.73999999836,-16.067201733839013,4,145,5,0,1,38.0,0.8606991052644332,44.033480377248644,42.74731239457823,-4.723945419434017,-7.373853153138964,0.0012664698379225444
ITST,3,a,3,390,153.84615384615384,0,a,74.79787473312055,49,9977.944999933245,-25.79787473312055,4,146,5,0,1,38.0,0.8606991052644332,44.033480377248644,42.74731239457823,-16.23433033601509,-23.14421792176757,0.008452775798062993
ITST,3,a,5,550,109.0909090909091,1,a,50.0,49,9811.680000042545,-1.0,4,147,5,0,1,38.0,0.8606991052644332,44.033480377248644,42.74731239457823,4.966519622751356,8.38635934109701,0.0002484430879323873
ITST,3,a,4,463,129.58963282937364,2,a,62.42097125758927,52,17005.265000043437,-10.420971257589272,4,148,5,0,1,38.0,0.8606991052644332,44.033480377248644,42.74731239457823,-2.65274314909356,-4.210221194824564,0.0002320648796396628
ITST,3,a,2,358,167.5977653631285,0,a,80.97360155738828,91,7728.200000012293,10.026398442611722,4,149,5,0,1,38.0,0.8606991052644332,44.033480377248644,42.74731239457823,20.485755187573915,39.39985687044868,0.01496500442397423
ITST,3,a,5,774,77.51937984496124,0,a,25.354902613380577,25,12394.314999924973,-0.3549026133805775,4,150,5,0,1,38.0,0.8606991052644332,44.033480377248644,42.74731239457823,2.036753162363837,3.3577338711805598,1.3187238308604437e-05
ITST,3,a,5,463,129.58963282937364,1,p,62.42097125758927,50,4703.510000137612,-12.420971257589272,5,151,5,0,1,38.0,0.8606991052644332,44.033480377248644,42.74731239457823,-4.65274314909356,-7.266850433494175,0.0005765065148632042
ITST,3,a,3,774,77.51937984496124,0,p,25.354902613380577,37,11455.085000023246,11.645097386619423,5,152,5,0,1,38.0,0.8606991052644332,44.033480377248644,42.74731239457823,14.036753162363837,25.559026370066487,0.004763058960767329
ITST,3,a,6,425,141.1764705882353,0,p,68.5984388693479,54,6058.405000017956,-14.598438869347902,5,153,5,0,1,38.0,0.8606991052644332,44.033480377248644,42.74731239457823,-5.93414590523826,-9.173773850825627,0.001046267656279734
ITST,3,a,4,358,167.5977653631285,2,p,80.97360155738828,61,5405.014999909326,-19.973601557388278,5,154,5,0,1,38.0,0.8606991052644332,44.033480377248644,42.74731239457823,-9.514244812426085,-14.296229991933712,0.003805327217268143
ITST,3,a,5,710,84.50704225352112,1,p,31.580629700998873,37,7607.944999821484,5.419370299001127,5,155,5,0,1,38.0,0.8606991052644332,44.033480377248644,42.74731239457823,8.714091148407697,15.17688465471215,0.0013021908440306496
ITST,3,a,6,843,71.17437722419929,1,p,19.194949373496982,0,3144.4349999073893,-19.194949373496982,5,156,5,0,1,38.0,0.8606991052644332,44.033480377248644,42.74731239457823,-17.696817928010198,-24.9453521577704,0.013794136879607075
ITST,3,a,4,504,119.04761904761905,2,p,56.30039424560527,50,3639.940000139177,-6.300394245605268,5,157,5,0,1,38.0,0.8606991052644332,44.033480377248644,42.74731239457823,0.5800212022335245,0.9449403488529833,1.8140065106468325e-06
ITST,3,a,7,918,65.359477124183,0,p,13.046873249910696,12,5875.904999906197,-1.0468732499106963,5,158,5,0,1,38.0,0.8606991052644332,44.033480377248644,42.74731239457823,-0.44054331439838634,-0.7117951322180766,0.00018813743563636
ITST,3,a,3,463,129.58963282937364,0,p,62.42097125758927,75,6012.044999981299,12.579028742410728,5,159,5,0,1,38.0,0.8606991052644332,44.033480377248644,42.74731239457823,20.34725685090644,39.08715105020721,0.0073445547611816165
ITST,3,a,7,358,167.5977653631285,0,p,80.97360155738828,51,7259.444999974221,-29.973601557388278,5,160,5,0,1,38.0,0.8606991052644332,44.033480377248644,42.74731239457823,-19.514244812426085,-27.124906331320336,0.01513563224779115
ITST,3,a,3,918,65.359477124183,1,p,13.046873249910696,0,3265.7149999868125,-13.046873249910696,5,161,5,0,1,38.0,0.8606991052644332,44.033480377248644,42.74731239457823,-12.440543314398386,-18.267892385330036,0.009266314084313545
ITST,3,a,4,652,92.02453987730061,0,p,37.727982709047225,49,8128.314999863505,11.272017290952775,5,162,5,0,1,38.0,0.8606991052644332,44.033480377248644,42.74731239457823,15.458434759711835,28.48710234617319,0.003921551302823978
ITST,3,a,3,599,100.1669449081803,1,p,43.84378078116181,48,6969.6299999486655,4.156219218838189,5,163,5,0,1,38.0,0.8606991052644332,44.033480377248644,42.74731239457823,9.229756145095003,16.14397393240993,0.0011044485315004089
ITST,3,a,6,774,77.51937984496124,2,p,25.354902613380577,42,5667.64000011608,16.645097386619423,5,164,5,0,1,38.0,0.8606991052644332,44.033480377248644,42.74731239457823,19.036753162363837,36.16275801878009,0.009265610489671543
ITST,3,a,3,329,182.370820668693,1,p,87.06720173383901,79,5463.749999878928,-8.067201733839013,5,165,5,0,1,38.0,0.8606991052644332,44.033480377248644,42.74731239457823,3.276054580565983,5.455743653165353,0.00037712309642484303
ITST,3,a,2,774,77.51937984496124,2,p,25.354902613380577,24,3382.340000011027,-1.3549026133805775,5,166,5,0,1,38.0,0.8606991052644332,44.033480377248644,42.74731239457823,1.036753162363837,1.6953039664378844,3.3022188382598166e-06
ITST,3,a,5,329,182.370820668693,1,p,87.06720173383901,87,9468.104999978095,-0.0672017338390134,5,167,5,0,1,38.0,0.8606991052644332,44.033480377248644,42.74731239457823,11.276054580565983,20.062360877737362,0.0055393501176947265
ITST,3,a,7,504,119.04761904761905,1,p,56.30039424560527,48,7006.474999943748,-8.300394245605268,5,168,5,0,1,38.0,0.8606991052644332,44.033480377248644,42.74731239457823,-1.4199787977664755,-2.276188878239397,9.059440689652684e-05
ITST,3,a,4,463,129.58963282937364,0,p,62.42097125758927,51,6781.634999904782,-11.420971257589272,5,169,5,0,1,38.0,0.8606991052644332,44.033480377248644,42.74731239457823,-3.65274314909356,-5.750926344696401,0.0003850273169268897
ITST,3,a,6,599,100.1669449081803,2,p,43.84378078116181,52,7316.409999970347,8.156219218838189,5,170,5,0,1,38.0,0.8606991052644332,44.033480377248644,42.74731239457823,13.229756145095003,23.926733270626535,0.002457657458121588
ITST,3,a,5,843,71.17437722419929,2,p,19.194949373496982,0,6334.060000022873,-19.194949373496982,5,171,5,0,1,38.0,0.8606991052644332,44.033480377248644,42.74731239457823,-17.696817928010198,-24.9453521577704,0.013794136879607075
ITST,3,a,7,425,141.1764705882353,2,p,68.5984388693479,57,4828.340000007302,-11.598438869347902,5,172,5,0,1,38.0,0.8606991052644332,44.033480377248644,42.74731239457823,-2.9341459052382604,-4.646308766445598,0.0003160383361659728
ITST,3,a,2,504,119.04761904761905,1,p,56.30039424560527,51,6365.460000000894,-5.300394245605268,5,173,5,0,1,38.0,0.8606991052644332,44.033480377248644,42.74731239457823,1.5800212022335245,2.5951039357948367,7.5009094507619195e-06
ITST,3,a,7,652,92.02453987730061,2,p,37.727982709047225,50,6816.83999998495,12.272017290952775,5,174,5,0,1,38.0,0.8606991052644332,44.033480377248644,42.74731239457823,16.458434759711835,30.58750219732569,0.004490335136806823
ITST,3,a,2,329,182.370820668693,1,p,87.06720173383901,97,12189.40500007011,9.932798266160987,5,175,5,0,1,38.0,0.8606991052644332,44.033480377248644,42.74731239457823,21.276054580565983,41.19771852469562,0.02050215949817399
ITST,3,a,4,1000,60.0,1,p,6.875176187496734,0,5169.170000124723,-6.875176187496734,5,176,5,0,1,38.0,0.8606991052644332,44.033480377248644,42.74731239457823,-7.164074067764176,-10.967203034128586,0.004581313415164199
ITST,3,a,2,425,141.1764705882353,2,p,68.5984388693479,62,7689.40500007011,-6.598438869347902,5,177,5,0,1,38.0,0.8606991052644332,44.033480377248644,42.74731239457823,2.0658540947617396,3.4065169266656783,4.2295806271473855e-05
ITST,3,a,6,329,182.370820668693,2,p,87.06720173383901,56,7917.935000034049,-31.067201733839013,5,178,5,0,1,38.0,0.8606991052644332,44.033480377248644,42.74731239457823,-19.723945419434017,-27.37228218424319,0.01924487738569024
ITST,3,a,2,918,65.359477124183,1,p,13.046873249910696,5,3692.365000024438,-8.046873249910696,5,179,5,0,1,38.0,0.8606991052644332,44.033480377248644,42.74731239457823,-7.440543314398386,-11.365438923518575,0.003827623347247384
ITST,3,a,5,504,119.04761904761905,0,p,56.30039424560527,20,8516.489999834448,-36.30039424560527,5,180,5,0,1,38.0,0.8606991052644332,44.033480377248644,42.74731239457823,-29.419978797766476,-37.93851625560696,0.015355108889554273
ITST,4,p,6,774,77.51937984496124,2,p,25.354902613380577,23,4323.899999959394,-2.3549026133805775,0,1,6,0,0,5.0,0.9283184798753525,50.51698690213663,34.63738828148162,-10.444150753831337,-18.860756363116828,0.007770413662704933
ITST,4,p,7,302,198.67549668874173,1,p,93.24415345434716,100,3140.98499994725,6.755846545652844,0,2,6,0,0,5.0,0.9283184798753525,50.51698690213663,34.63738828148162,19.52572241581943,47.80735814197707,0.05810909992541785
ITST,4,p,6,550,109.0909090909091,2,p,50.0,42,2760.594999883324,-8.0,0,3,6,0,0,5.0,0.9283184798753525,50.51698690213663,34.63738828148162,-8.51698690213663,-15.670458566117635,0.003205655364012851
ITST,4,p,4,774,77.51937984496124,2,p,25.354902613380577,10,3558.104999829084,-15.354902613380577,0,4,6,0,0,5.0,0.9283184798753525,50.51698690213663,34.63738828148162,-23.444150753831337,-37.44683539588791,0.04384321889523474
ITST,4,p,6,358,167.5977653631285,1,p,80.97360155738828,100,4823.570000007749,19.026398442611722,0,5,6,0,0,5.0,0.9283184798753525,50.51698690213663,34.63738828148162,28.026119825480137,75.21534508221123,0.0817353961392799
ITST,4,p,2,918,65.359477124183,0,p,13.046873249910696,0,2467.6050001289696,-13.046873249910696,0,6,6,0,0,5.0,0.9283184798753525,50.51698690213663,34.63738828148162,-24.917790912983666,-39.26458126306356,0.07675152543418294
ITST,4,p,4,358,167.5977653631285,1,p,80.97360155738828,74,2787.514999974519,-6.973601557388278,0,7,6,0,0,5.0,0.9283184798753525,50.51698690213663,34.63738828148162,2.026119825480137,4.137896248093662,0.00016691278482181804
ITST,4,p,3,599,100.1669449081803,0,p,43.84378078116181,48,4119.865000015125,4.156219218838189,0,8,6,0,0,5.0,0.9283184798753525,50.51698690213663,34.63738828148162,1.7477202064397233,3.5593360541843446,0.00022508779303953439
ITST,4,p,4,463,129.58963282937364,0,p,62.42097125758927,71,2426.9550000317395,8.579028742410728,0,9,6,0,0,5.0,0.9283184798753525,50.51698690213663,34.63738828148162,11.878413012218516,26.833527568868334,0.007695851222894888
ITST,4,p,5,504,119.04761904761905,0,p,56.30039424560527,49,9530.534999910742,-7.300394245605268,0,10,6,0,0,5.0,0.9283184798753525,50.51698690213663,34.63738828148162,-5.881570938365471,-11.103662390878489,0.0016931568178638993
ITST,4,p,6,425,141.1764705882353,1,p,68.5984388693479,68,5921.455000061542,-0.5984388693479019,0,11,6,0,0,5.0,0.9283184798753525,50.51698690213663,34.63738828148162,4.598986126923307,9.640073402786044,0.0012194005549619972
ITST,4,p,4,1000,60.0,2,p,6.875176187496734,0,1970.0449998490512,-6.875176187496734,0,12,6,0,0,5.0,0.9283184798753525,50.51698690213663,34.63738828148162,-20.642361562853427,-33.83941314059212,0.06280467818466463
ITST,4,p,5,329,182.370820668693,1,p,87.06720173383901,86,2825.4650000017136,-1.0672017338390134,0,13,6,0,0,5.0,0.9283184798753525,50.51698690213663,34.63738828148162,9.804791918603556,21.678106508061873,0.01075862022615093
ITST,4,p,7,652,92.02453987730061,0,p,37.727982709047225,37,2466.895000077784,-0.7279827090472253,0,14,6,0,0,5.0,0.9283184798753525,50.51698690213663,34.63738828148162,-5.01557434406088,-9.549669761459013,0.0011024583035553457
ITST,4,p,5,843,71.17437722419929,1,p,19.194949373496982,13,2007.57999997586,-6.194949373496982,0,15,6,0,0,5.0,0.9283184798753525,50.51698690213663,34.63738828148162,-16.176856910518957,-27.65498806177002,0.02472819911359147
ITST,4,p,3,390,153.84615384615384,1,p,74.79787473312055,82,2369.930000044405,7.202125266879449,0,16,6,0,0,5.0,0.9283184798753525,50.51698690213663,34.63738828148162,14.304340784130588,33.142761815509374,0.01635133044273018
ITST,4,p,7,1000,60.0,0,p,6.875176187496734,12,2740.449999924749,5.124823812503266,0,17,6,0,0,5.0,0.9283184798753525,50.51698690213663,34.63738828148162,-8.642361562853427,-15.881771041369154,0.008611354628376486
ITST,4,p,2,358,167.5977653631285,1,p,80.97360155738828,94,4258.804999990389,13.026398442611722,0,18,6,0,0,5.0,0.9283184798753525,50.51698690213663,34.63738828148162,22.026119825480137,55.39131880250686,0.04968436593026773
ITST,4,p,5,463,129.58963282937364,1,p,62.42097125758927,77,4273.800000082701,14.579028742410728,0,19,6,0,0,5.0,0.9283184798753525,50.51698690213663,34.63738828148162,17.878413012218516,43.01429753111088,0.017634262159775666
ITST,4,p,3,302,198.67549668874173,1,p,93.24415345434716,93,2721.9899999909103,-0.24415345434715618,0,20,6,0,0,5.0,0.9283184798753525,50.51698690213663,34.63738828148162,12.52572241581943,28.487172244608594,0.022209941819643284
ITST,4,p,2,774,77.51937984496124,2,p,25.354902613380577,6,2926.730000181124,-19.354902613380577,0,21,6,0,0,5.0,0.9283184798753525,50.51698690213663,34.63738828148162,-27.444150753831337,-42.25881462631149,0.060856772297462086
ITST,4,p,6,1000,60.0,2,p,6.875176187496734,0,2537.6850001048297,-6.875176187496734,0,22,6,0,0,5.0,0.9283184798753525,50.51698690213663,34.63738828148162,-20.642361562853427,-33.83941314059212,0.06280467818466463
ITST,4,p,2,504,119.04761904761905,2,p,56.30039424560527,48,7111.920000053942,-8.300394245605268,0,23,6,0,0,5.0,0.9283184798753525,50.51698690213663,34.63738828148162,-6.881570938365471,-12.864932602155413,0.002317559511577226
ITST,4,p,3,843,71.17437722419929,0,p,19.194949373496982,37,2389.519999967888,17.805050626503018,0,24,6,0,0,5.0,0.9283184798753525,50.51698690213663,34.63738828148162,7.823143089481043,16.94728280842032,0.008944018374897214
ITST,4,p,7,390,153.84615384615384,1,p,74.79787473312055,74,2088.0899999756366,-0.7978747331205511,0,25,6,0,0,5.0,0.9283184798753525,50.51698690213663,34.63738828148162,6.304340784130588,13.446311555185844,0.0028346980247858375
ITST,4,p,5,710,84.50704225352112,2,p,31.580629700998873,34,1899.534999858588,2.4193702990011268,0,26,6,0,0,5.0,0.9283184798753525,50.51698690213663,34.63738828148162,-3.7570092831987836,-7.242674728756963,0.0006064797414938809
ITST,4,p,2,390,153.84615384615384,1,p,74.79787473312055,69,3532.8850001096725,-5.797874733120551,0,27,6,0,0,5.0,0.9283184798753525,50.51698690213663,34.63738828148162,1.3043407841305878,2.644549325152815,4.3531731587150134e-05
ITST,4,p,4,550,109.0909090909091,2,p,50.0,46,2294.2500000353903,-4.0,0,28,6,0,0,5.0,0.9283184798753525,50.51698690213663,34.63738828148162,-4.51698690213663,-8.642684555854657,0.0008636769462773842
ITST,4,p,3,652,92.02453987730061,2,p,37.727982709047225,39,1993.914999999106,1.2720172909527747,0,29,6,0,0,5.0,0.9283184798753525,50.51698690213663,34.63738828148162,-3.01557434406088,-5.856150577132612,0.00033062948837074845
ITST,4,p,7,504,119.04761904761905,0,p,56.30039424560527,53,2712.3249999713157,-3.3003942456052684,0,30,6,0,0,5.0,0.9283184798753525,50.51698690213663,34.63738828148162,-1.8815709383654706,-3.6953051244421267,0.00017360126239210816
ITST,4,p,5,652,92.02453987730061,2,a,37.727982709047225,45,2427.7599998749797,7.272017290952775,1,31,6,0,0,5.0,0.9283184798753525,50.51698690213663,34.63738828148162,2.98442565593912,6.154238158955181,0.0007223722020588942
ITST,4,p,2,843,71.17437722419929,1,a,19.194949373496982,26,2054.92000002414,6.805050626503018,1,32,6,0,0,5.0,0.9283184798753525,50.51698690213663,34.63738828148162,-3.176856910518957,-6.1595110859765505,0.00043459323929330803
ITST,4,p,7,504,119.04761904761905,0,a,56.30039424560527,53,2234.6100001595914,-3.3003942456052684,1,33,6,0,0,5.0,0.9283184798753525,50.51698690213663,34.63738828148162,-1.8815709383654706,-3.6953051244421267,0.00017360126239210816
ITST,4,p,4,843,71.17437722419929,2,a,19.194949373496982,31,2573.009999934584,11.805050626503018,1,34,6,0,0,5.0,0.9283184798753525,50.51698690213663,34.63738828148162,1.823143089481043,3.715759013250634,0.0009996099846715648
ITST,4,p,6,425,141.1764705882353,0,a,68.5984388693479,64,2087.8800000064075,-4.598438869347902,1,35,6,0,0,5.0,0.9283184798753525,50.51698690213663,34.63738828148162,0.5989861269233074,1.2058757186989209,2.7956717803195867e-06
ITST,4,p,3,504,119.04761904761905,2,a,56.30039424560527,48,3061.5149999503046,-8.300394245605268,1,36,6,0,0,5.0,0.9283184798753525,50.51698690213663,34.63738828148162,-6.881570938365471,-12.864932602155413,0.002317559511577226
ITST,4,p,7,463,129.58963282937364,2,a,62.42097125758927,60,2232.255000155419,-2.4209712575892723,1,37,6,0,0,5.0,0.9283184798753525,50.51698690213663,34.63738828148162,0.8784130122185161,1.7733798676672945,2.6022518594307924e-05
ITST,4,p,3,918,65.359477124183,1,a,13.046873249910696,17,3112.5649998430163,3.9531267500893037,1,38,6,0,0,5.0,0.9283184798753525,50.51698690213663,34.63738828148162,-7.917790912983666,-14.653190675056596,0.005911283797173194
ITST,4,p,5,329,182.370820668693,0,a,87.06720173383901,82,2111.6049999836832,-5.067201733839013,1,39,6,0,0,5.0,0.9283184798753525,50.51698690213663,34.63738828148162,5.804791918603556,12.317868300775862,0.003209002431427084
ITST,4,p,3,390,153.84615384615384,1,a,74.79787473312055,63,2035.5050000362096,-11.797874733120551,1,40,6,0,0,5.0,0.9283184798753525,50.51698690213663,34.63738828148162,-4.695659215869412,-8.968749968556276,0.002437887747273196
ITST,4,p,2,358,167.5977653631285,1,a,80.97360155738828,79,2115.199999883771,-1.9736015573882781,1,41,6,0,0,5.0,0.9283184798753525,50.51698690213663,34.63738828148162,7.026119825480137,15.09681030444979,0.004279067289751375
ITST,4,p,5,550,109.0909090909091,1,a,50.0,46,1782.6249999925494,-4.0,1,42,6,0,0,5.0,0.9283184798753525,50.51698690213663,34.63738828148162,-4.51698690213663,-8.642684555854657,0.0008636769462773842
ITST,4,p,6,1000,60.0,2,a,6.875176187496734,10,2023.4600000549108,3.1248238125032657,1,43,6,0,0,5.0,0.9283184798753525,50.51698690213663,34.63738828148162,-10.642361562853427,-19.181957875824175,0.014184632923274331
ITST,4,p,4,652,92.02453987730061,0,a,37.727982709047225,39,2003.170000156388,1.2720172909527747,1,44,6,0,0,5.0,0.9283184798753525,50.51698690213663,34.63738828148162,-3.01557434406088,-5.856150577132612,0.00033062948837074845
ITST,4,p,6,550,109.0909090909091,0,a,50.0,52,2193.405000027269,2.0,1,45,6,0,0,5.0,0.9283184798753525,50.51698690213663,34.63738828148162,1.4830130978633704,3.0122124883601864,0.00013125845012167884
ITST,4,p,7,329,182.370820668693,1,a,87.06720173383901,95,2022.0749999862164,7.932798266160987,1,46,6,0,0,5.0,0.9283184798753525,50.51698690213663,34.63738828148162,18.804791918603556,45.69026105248268,0.043950656697497405
ITST,4,p,3,774,77.51937984496124,0,a,25.354902613380577,37,1658.5699999704957,11.645097386619423,1,47,6,0,0,5.0,0.9283184798753525,50.51698690213663,34.63738828148162,3.5558492461686626,7.375085283175962,0.0017989309993471211
ITST,4,p,5,463,129.58963282937364,2,a,62.42097125758927,60,2105.8999998494983,-2.4209712575892723,1,48,6,0,0,5.0,0.9283184798753525,50.51698690213663,34.63738828148162,0.8784130122185161,1.7733798676672945,2.6022518594307924e-05
ITST,4,p,3,329,182.370820668693,0,a,87.06720173383901,73,1771.7699999921024,-14.067201733839013,1,49,6,0,0,5.0,0.9283184798753525,50.51698690213663,34.63738828148162,-3.1952080813964443,-6.193966273853551,0.0024277588265162534
ITST,4,p,4,463,129.58963282937364,1,a,62.42097125758927,54,2102.2300000768155,-8.420971257589272,1,50,6,0,0,5.0,0.9283184798753525,50.51698690213663,34.63738828148162,-5.121586987781484,-9.741354507477388,0.001597347596238086
ITST,4,p,2,710,84.50704225352112,1,a,31.580629700998873,36,1687.3999999370426,4.419370299001127,1,51,6,0,0,5.0,0.9283184798753525,50.51698690213663,34.63738828148162,-1.7570092831987836,-3.454949913683187,6.424615634521699e-05
ITST,4,p,4,329,182.370820668693,2,a,87.06720173383901,86,1985.554999904707,-1.0672017338390134,1,52,6,0,0,5.0,0.9283184798753525,50.51698690213663,34.63738828148162,9.804791918603556,21.678106508061873,0.01075862022615093
ITST,4,p,7,652,92.02453987730061,2,a,37.727982709047225,44,1571.98500004597,6.272017290952775,1,53,6,0,0,5.0,0.9283184798753525,50.51698690213663,34.63738828148162,1.9844256559391198,4.051043556132976,0.00037507871235650136
ITST,4,p,4,504,119.04761904761905,0,a,56.30039424560527,53,1576.9050000235438,-3.3003942456052684,1,54,6,0,0,5.0,0.9283184798753525,50.51698690213663,34.63738828148162,-1.8815709383654706,-3.6953051244421267,0.00017360126239210816
ITST,4,p,6,710,84.50704225352112,1,a,31.580629700998873,41,1346.180000109598,9.419370299001127,1,55,6,0,0,5.0,0.9283184798753525,50.51698690213663,34.63738828148162,3.2429907168012164,6.704933707759875,0.0011231364838265182
ITST,4,p,7,1000,60.0,0,a,6.875176187496734,29,1686.2850000616163,22.124823812503266,1,56,6,0,0,5.0,0.9283184798753525,50.51698690213663,34.63738828148162,8.357638437146573,18.20487282354295,0.01710040723148683
ITST,4,p,2,599,100.1669449081803,2,a,43.84378078116181,47,1920.5749998800457,3.1562192188381886,1,57,6,0,0,5.0,0.9283184798753525,50.51698690213663,34.63738828148162,0.7477202064397233,1.5075532856539786,6.416492695588917e-05
ITST,4,p,6,358,167.5977653631285,0,a,80.97360155738828,68,1868.7150001060215,-12.973601557388278,1,58,6,0,0,5.0,0.9283184798753525,50.51698690213663,34.63738828148162,-3.973880174519863,-7.6443616983590505,0.002507471106566441
ITST,4,p,5,843,71.17437722419929,2,a,19.194949373496982,36,1791.4700000546873,16.805050626503018,1,59,6,0,0,5.0,0.9283184798753525,50.51698690213663,34.63738828148162,6.823143089481043,14.630249609528262,0.007069466348058717
ITST,4,p,2,425,141.1764705882353,2,a,68.5984388693479,57,1345.3699999954551,-11.598438869347902,1,60,6,0,0,5.0,0.9283184798753525,50.51698690213663,34.63738828148162,-6.401013873076693,-12.022940203395075,0.0031935814315661865
ITST,4,p,2,425,141.1764705882353,0,p,68.5984388693479,56,2017.5100001506507,-12.598438869347902,2,61,6,0,0,5.0,0.9283184798753525,50.51698690213663,34.63738828148162,-7.401013873076693,-13.76599710385832,0.004202119065338588
ITST,4,p,7,550,109.0909090909091,1,p,50.0,52,1781.7199998535216,2.0,2,62,6,0,0,5.0,0.9283184798753525,50.51698690213663,34.63738828148162,1.4830130978633704,3.0122124883601864,0.00013125845012167884
ITST,4,p,4,843,71.17437722419929,0,p,19.194949373496982,33,1828.0450000893325,13.805050626503018,2,63,6,0,0,5.0,0.9283184798753525,50.51698690213663,34.63738828148162,3.823143089481043,7.950969040921543,0.0027669717758653577
ITST,4,p,7,710,84.50704225352112,2,p,31.580629700998873,40,1956.135000102222,8.419370299001127,2,64,6,0,0,5.0,0.9283184798753525,50.51698690213663,34.63738828148162,2.2429907168012164,4.5908283779979655,0.0006354184994327764
ITST,4,p,6,504,119.04761904761905,1,p,56.30039424560527,58,2933.0700000282377,1.6996057543947316,2,65,6,0,0,5.0,0.9283184798753525,50.51698690213663,34.63738828148162,3.1184290616345294,6.439284802845328,0.0004747810616607862
ITST,4,p,2,652,92.02453987730061,0,p,37.727982709047225,38,2162.330000195652,0.2720172909527747,2,66,6,0,0,5.0,0.9283184798753525,50.51698690213663,34.63738828148162,-4.01557434406088,-7.721387796381389,0.0006601432884788402
ITST,4,p,6,843,71.17437722419929,0,p,19.194949373496982,35,2282.5400000438094,15.805050626503018,2,67,6,0,0,5.0,0.9283184798753525,50.51698690213663,34.63738828148162,5.823143089481043,12.359122931214085,0.005415107905940575
ITST,4,p,5,302,198.67549668874173,0,p,93.24415345434716,83,2946.6850000899285,-10.244153454347156,2,68,6,0,0,5.0,0.9283184798753525,50.51698690213663,34.63738828148162,2.5257224158194305,5.184269454929188,0.0003083894081058296
ITST,4,p,3,710,84.50704225352112,0,p,31.580629700998873,32,2660.8250001445413,0.41937029900112677,2,69,6,0,0,5.0,0.9283184798753525,50.51698690213663,34.63738828148162,-5.757009283198784,-10.88179680073931,0.0017005931644375073
ITST,4,p,6,302,198.67549668874173,2,p,93.24415345434716,75,1929.0849999524653,-18.244153454347156,2,70,6,0,0,5.0,0.9283184798753525,50.51698690213663,34.63738828148162,-5.4742775841805695,-10.376146321620732,0.007676242303653728
ITST,4,p,3,550,109.0909090909091,1,p,50.0,47,1840.444999979809,-3.0,2,71,6,0,0,5.0,0.9283184798753525,50.51698690213663,34.63738828148162,-3.5169869021366296,-6.796069604157454,0.0005098947693808092
ITST,4,p,7,425,141.1764705882353,2,p,68.5984388693479,58,3146.074999822304,-10.598438869347902,2,72,6,0,0,5.0,0.9283184798753525,50.51698690213663,34.63738828148162,-5.401013873076693,-10.244650711886383,0.0023232215719588183
ITST,4,p,3,358,167.5977653631285,2,p,80.97360155738828,69,1927.784999832511,-11.973601557388278,2,73,6,0,0,5.0,0.9283184798753525,50.51698690213663,34.63738828148162,-2.973880174519863,-5.777567542552041,0.001566230800846876
ITST,4,p,4,710,84.50704225352112,0,p,31.580629700998873,37,1965.529999928549,5.419370299001127,2,74,6,0,0,5.0,0.9283184798753525,50.51698690213663,34.63738828148162,-0.7570092831987836,-1.5034747402391035,8.43029439959279e-08
ITST,4,p,7,358,167.5977653631285,0,p,80.97360155738828,73,2880.210000090301,-7.973601557388278,2,75,6,0,0,5.0,0.9283184798753525,50.51698690213663,34.63738828148162,1.0261198254801371,2.0746506807307745,5.858586350460528e-06
ITST,4,p,3,1000,60.0,2,p,6.875176187496734,28,2220.810000086203,21.124823812503266,2,76,6,0,0,5.0,0.9283184798753525,50.51698690213663,34.63738828148162,7.357638437146573,15.862923459472404,0.013833897357756276
ITST,4,p,4,302,198.67549668874173,2,p,93.24415345434716,71,1462.5450000166893,-22.244153454347156,2,77,6,0,0,5.0,0.9283184798753525,50.51698690213663,34.63738828148162,-9.47427758418057,-17.270571650543776,0.0196565336930203
ITST,4,p,6,652,92.02453987730061,1,p,37.727982709047225,38,2860.465000150725,0.2720172909527747,2,78,6,0,0,5.0,0.9283184798753525,50.51698690213663,34.63738828148162,-4.01557434406088,-7.721387796381389,0.0006601432884788402
ITST,4,p,5,390,153.84615384615384,0,p,74.79787473312055,60,2121.4050000999123,-14.797874733120551,2,79,6,0,0,5.0,0.9283184798753525,50.51698690213663,34.63738828148162,-7.695659215869412,-14.27296296244008,0.005984783941830775
ITST,4,p,7,843,71.17437722419929,1,p,19.194949373496982,35,1515.625,15.805050626503018,2,80,6,0,0,5.0,0.9283184798753525,50.51698690213663,34.63738828148162,5.823143089481043,12.359122931214085,0.005415107905940575
ITST,4,p,4,599,100.1669449081803,1,p,43.84378078116181,45,2676.530000055209,1.1562192188381886,2,81,6,0,0,5.0,0.9283184798753525,50.51698690213663,34.63738828148162,-1.2522797935602767,-2.4748640226776786,3.5700008276975006e-05
ITST,4,p,2,302,198.67549668874173,0,p,93.24415345434716,80,1490.209999959916,-13.244153454347156,2,82,6,0,0,5.0,0.9283184798753525,50.51698690213663,34.63738828148162,-0.47427758418056953,-0.9446123148179556,0.0004787201996885972
ITST,4,p,5,550,109.0909090909091,1,p,50.0,47,1457.0999999996277,-3.0,2,83,6,0,0,5.0,0.9283184798753525,50.51698690213663,34.63738828148162,-3.5169869021366296,-6.796069604157454,0.0005098947693808092
ITST,4,p,3,425,141.1764705882353,0,p,68.5984388693479,60,1935.4949998669329,-8.598438869347902,2,84,6,0,0,5.0,0.9283184798753525,50.51698690213663,34.63738828148162,-3.4010138730766926,-6.579510920607787,0.0009970351752391833
ITST,4,p,2,843,71.17437722419929,1,p,19.194949373496982,23,2127.910000039265,3.805050626503018,2,85,6,0,0,5.0,0.9283184798753525,50.51698690213663,34.63738828148162,-6.176856910518957,-11.627412938123374,0.0027379062087106235
ITST,4,p,5,652,92.02453987730061,0,p,37.727982709047225,44,1552.6199999731034,6.272017290952775,2,86,6,0,0,5.0,0.9283184798753525,50.51698690213663,34.63738828148162,1.9844256559391198,4.051043556132976,0.00037507871235650136
ITST,4,p,6,390,153.84615384615384,0,p,74.79787473312055,61,1361.1899998504668,-13.797874733120551,2,87,6,0,0,5.0,0.9283184798753525,50.51698690213663,34.63738828148162,-6.695659215869412,-12.540153415786486,0.004628432011295689
ITST,4,p,5,1000,60.0,0,p,6.875176187496734,16,2112.320000072941,9.124823812503266,2,88,6,0,0,5.0,0.9283184798753525,50.51698690213663,34.63738828148162,-4.642361562853427,-8.871607186413126,0.0016155287959610056
ITST,4,p,2,550,109.0909090909091,1,p,50.0,56,1516.0649998579174,6.0,2,89,6,0,0,5.0,0.9283184798753525,50.51698690213663,34.63738828148162,5.48301309786337,11.596944924418652,0.0014966788729828704
ITST,4,p,4,390,153.84615384615384,2,p,74.79787473312055,64,1504.399999976158,-10.797874733120551,2,90,6,0,0,5.0,0.9283184798753525,50.51698690213663,34.63738828148162,-3.695659215869412,-7.128725811076274,0.0016036954137857895
ITST,4,p,7,550,109.0909090909091,1,a,50.0,48,3330.620000138879,-2.0,3,91,6,0,0,5.0,0.9283184798753525,50.51698690213663,34.63738828148162,-2.5169869021366296,-4.912128831717218,0.0002487975634991502
ITST,4,p,2,329,182.370820668693,0,a,87.06720173383901,73,2242.7749999333173,-14.067201733839013,3,92,6,0,0,5.0,0.9283184798753525,50.51698690213663,34.63738828148162,-3.1952080813964443,-6.193966273853551,0.0024277588265162534
ITST,4,p,7,843,71.17437722419929,1,a,19.194949373496982,33,1749.440000159666,13.805050626503018,3,93,6,0,0,5.0,0.9283184798753525,50.51698690213663,34.63738828148162,3.823143089481043,7.950969040921543,0.0027669717758653577
ITST,4,p,4,550,109.0909090909091,2,a,50.0,56,2262.0300000999123,6.0,3,94,6,0,0,5.0,0.9283184798753525,50.51698690213663,34.63738828148162,5.48301309786337,11.596944924418652,0.0014966788729828704
ITST,4,p,2,463,129.58963282937364,1,a,62.42097125758927,54,1737.215000204742,-8.420971257589272,3,95,6,0,0,5.0,0.9283184798753525,50.51698690213663,34.63738828148162,-5.121586987781484,-9.741354507477388,0.001597347596238086
ITST,4,p,4,710,84.50704225352112,2,a,31.580629700998873,35,2036.284999921918,3.4193702990011268,3,96,6,0,0,5.0,0.9283184798753525,50.51698690213663,34.63738828148162,-2.7570092831987836,-5.367761232310786,0.0002663779691951787
ITST,4,p,6,302,198.67549668874173,2,a,93.24415345434716,83,1769.7000000625849,-10.244153454347156,3,97,6,0,0,5.0,0.9283184798753525,50.51698690213663,34.63738828148162,2.5257224158194305,5.184269454929188,0.0003083894081058296
ITST,4,p,5,918,65.359477124183,0,a,13.046873249910696,29,1760.939999949187,15.953126750089304,3,98,6,0,0,5.0,0.9283184798753525,50.51698690213663,34.63738828148162,4.082209087016334,8.512073252012437,0.004147561109997614
ITST,4,p,4,425,141.1764705882353,0,a,68.5984388693479,72,2062.029999913648,3.401561130652098,3,99,6,0,0,5.0,0.9283184798753525,50.51698690213663,34.63738828148162,8.598986126923307,18.777152120895142,0.004646849824784216
ITST,4,p,3,599,100.1669449081803,0,a,43.84378078116181,37,2155.235000187531,-6.843780781161811,3,100,6,0,0,5.0,0.9283184798753525,50.51698690213663,34.63738828148162,-9.252279793560277,-16.902227280849615,0.003833584513406333
ITST,4,p,5,390,153.84615384615384,0,a,74.79787473312055,72,2318.2550000492483,-2.797874733120551,3,101,6,0,0,5.0,0.9283184798753525,50.51698690213663,34.63738828148162,4.304340784130588,8.995504299174376,0.0011960719104586834
ITST,4,p,4,302,198.67549668874173,0,a,93.24415345434716,84,1998.755000066012,-9.244153454347156,3,102,6,0,0,5.0,0.9283184798753525,50.51698690213663,34.63738828148162,3.5257224158194305,7.310370071114336,0.0009429762227109592
ITST,4,p,6,463,129.58963282937364,2,a,62.42097125758927,54,1885.2699999697504,-8.420971257589272,3,103,6,0,0,5.0,0.9283184798753525,50.51698690213663,34.63738828148162,-5.121586987781484,-9.741354507477388,0.001597347596238086
ITST,4,p,7,302,198.67549668874173,0,a,93.24415345434716,67,1462.5349999405444,-26.244153454347156,3,104,6,0,0,5.0,0.9283184798753525,50.51698690213663,34.63738828148162,-13.47427758418057,-23.63463481955934,0.03716773504344861
ITST,4,p,4,918,65.359477124183,1,a,13.046873249910696,25,1989.5350001752377,11.953126750089304,3,105,6,0,0,5.0,0.9283184798753525,50.51698690213663,34.63738828148162,0.08220908701633434,0.16464836881862155,0.00029950051032249625
ITST,4,p,3,302,198.67549668874173,1,a,93.24415345434716,84,1508.2849999889731,-9.244153454347156,3,106,6,0,0,5.0,0.9283184798753525,50.51698690213663,34.63738828148162,3.5257224158194305,7.310370071114336,0.0009429762227109592
ITST,4,p,6,652,92.02453987730061,2,a,37.727982709047225,29,1903.165000025183,-8.727982709047225,3,107,6,0,0,5.0,0.9283184798753525,50.51698690213663,34.63738828148162,-13.01557434406088,-22.930422919049995,0.008701822163030299
ITST,4,p,5,358,167.5977653631285,1,a,80.97360155738828,81,1767.4250002019107,0.026398442611721862,3,108,6,0,0,5.0,0.9283184798753525,50.51698690213663,34.63738828148162,9.026119825480137,19.796763038653513,0.007467141397590487
ITST,4,p,6,599,100.1669449081803,2,a,43.84378078116181,40,1684.330000076443,-3.8437807811618114,3,109,6,0,0,5.0,0.9283184798753525,50.51698690213663,34.63738828148162,-6.252279793560277,-11.760695495182002,0.0016759257902618841
ITST,4,p,5,710,84.50704225352112,1,a,31.580629700998873,30,1702.2649999707935,-1.5806297009988732,3,110,6,0,0,5.0,0.9283184798753525,50.51698690213663,34.63738828148162,-7.757009283198784,-14.37814621928365,0.003346586425176097
ITST,4,p,6,918,65.359477124183,0,a,13.046873249910696,32,2116.5599999949336,18.953126750089304,3,111,6,0,0,5.0,0.9283184798753525,50.51698690213663,34.63738828148162,7.082209087016334,15.22607117876241,0.009944710666110404
ITST,4,p,3,710,84.50704225352112,1,a,31.580629700998873,34,2085.914999945089,2.4193702990011268,3,112,6,0,0,5.0,0.9283184798753525,50.51698690213663,34.63738828148162,-3.7570092831987836,-7.242674728756963,0.0006064797414938809
ITST,4,p,2,1000,60.0,0,a,6.875176187496734,19,1801.3150000479072,12.124823812503266,3,113,6,0,0,5.0,0.9283184798753525,50.51698690213663,34.63738828148162,-1.6423615628534272,-3.233194592475049,5.488343570834122e-07
ITST,4,p,7,425,141.1764705882353,1,a,68.5984388693479,65,5242.835000157356,-3.598438869347902,3,114,6,0,0,5.0,0.9283184798753525,50.51698690213663,34.63738828148162,1.5989861269233074,3.2515606470834366,9.968023132818833e-05
ITST,4,p,2,652,92.02453987730061,2,a,37.727982709047225,41,2273.0149999260902,3.2720172909527747,3,115,6,0,0,5.0,0.9283184798753525,50.51698690213663,34.63738828148162,-1.0155743440608802,-2.0118073556909364,1.0005533059807304e-05
ITST,4,p,5,504,119.04761904761905,0,a,56.30039424560527,56,2715.349999954924,-0.3003942456052684,3,116,6,0,0,5.0,0.9283184798753525,50.51698690213663,34.63738828148162,1.1184290616345294,2.2633822580127276,6.089257613885944e-05
ITST,4,p,7,774,77.51937984496124,0,a,25.354902613380577,37,2468.0900000967085,11.645097386619423,3,117,6,0,0,5.0,0.9283184798753525,50.51698690213663,34.63738828148162,3.5558492461686626,7.375085283175962,0.0017989309993471211
ITST,4,p,3,463,129.58963282937364,0,a,62.42097125758927,58,2076.30499987863,-4.420971257589272,3,118,6,0,0,5.0,0.9283184798753525,50.51698690213663,34.63738828148162,-1.121586987781484,-2.2194665402432707,9.843534782754568e-05
ITST,4,p,2,550,109.0909090909091,1,a,50.0,52,2329.1500001214445,2.0,3,119,6,0,0,5.0,0.9283184798753525,50.51698690213663,34.63738828148162,1.4830130978633704,3.0122124883601864,0.00013125845012167884
ITST,4,p,3,1000,60.0,2,a,6.875176187496734,31,1889.2900000792,24.124823812503266,3,120,6,0,0,5.0,0.9283184798753525,50.51698690213663,34.63738828148162,10.357638437146573,23.0317426017208,0.024671109668293
ITST,4,p,7,599,100.1669449081803,2,p,43.84378078116181,47,2424.115000059828,3.1562192188381886,4,121,6,0,0,5.0,0.9283184798753525,50.51698690213663,34.63738828148162,0.7477202064397233,1.5075532856539786,6.416492695588917e-05
ITST,4,p,3,329,182.370820668693,0,p,87.06720173383901,64,2974.2950000800192,-23.067201733839013,4,122,6,0,0,5.0,0.9283184798753525,50.51698690213663,34.63738828148162,-12.195208081396444,-21.65474562011306,0.024084756436830095
ITST,4,p,5,918,65.359477124183,2,p,13.046873249910696,28,3784.9200000055134,14.953126750089304,4,123,6,0,0,5.0,0.9283184798753525,50.51698690213663,34.63738828148162,3.0822090870163343,6.362163735795674,0.002769673944885054
ITST,4,p,3,774,77.51937984496124,1,p,25.354902613380577,32,2722.7900000289083,6.6450973866194225,4,124,6,0,0,5.0,0.9283184798753525,50.51698690213663,34.63738828148162,-1.4441507538313374,-2.848606653200321,1.777555281954717e-05
ITST,4,p,5,599,100.1669449081803,2,p,43.84378078116181,46,3616.135000018403,2.1562192188381886,4,125,6,0,0,5.0,0.9283184798753525,50.51698690213663,34.63738828148162,-0.25227979356027674,-0.5035782708307946,1.0356653683693833e-06
ITST,4,p,3,918,65.359477124183,1,p,13.046873249910696,35,2039.1100000124425,21.953126750089304,4,126,6,0,0,5.0,0.9283184798753525,50.51698690213663,34.63738828148162,10.082209087016334,22.35548618132211,0.018237092313385866
ITST,4,p,2,329,182.370820668693,2,p,87.06720173383901,76,2943.514999933541,-11.067201733839013,4,127,6,0,0,5.0,0.9283184798753525,50.51698690213663,34.63738828148162,-0.1952080813964443,-0.38987925312837907,0.00019503544868378897
ITST,4,p,3,504,119.04761904761905,2,p,56.30039424560527,47,3826.234999811277,-9.300394245605268,4,128,6,0,0,5.0,0.9283184798753525,50.51698690213663,34.63738828148162,-7.881570938365471,-14.591307419082467,0.0030397677272287057
ITST,4,p,4,918,65.359477124183,1,p,13.046873249910696,39,3959.999999962747,25.953126750089304,4,129,6,0,0,5.0,0.9283184798753525,50.51698690213663,34.63738828148162,14.082209087016334,32.55222970888384,0.03317507331822843
ITST,4,p,3,463,129.58963282937364,2,p,62.42097125758927,57,3039.579999865964,-5.420971257589272,4,130,6,0,0,5.0,0.9283184798753525,50.51698690213663,34.63738828148162,-2.121586987781484,-4.1567560333456814,0.00030390258618717263
ITST,4,p,2,1000,60.0,2,p,6.875176187496734,32,19004.629999864846,25.124823812503266,4,131,6,0,0,5.0,0.9283184798753525,50.51698690213663,34.63738828148162,11.357638437146573,25.518596055296733,0.02897530223136861
ITST,4,p,4,652,92.02453987730061,1,p,37.727982709047225,43,2772.344999946654,5.272017290952775,4,132,6,0,0,5.0,0.9283184798753525,50.51698690213663,34.63738828148162,0.9844256559391198,1.9895187689870633,0.0001405864376225226
ITST,4,p,7,329,182.370820668693,2,p,87.06720173383901,64,2506.659999955445,-23.067201733839013,4,133,6,0,0,5.0,0.9283184798753525,50.51698690213663,34.63738828148162,-12.195208081396444,-21.65474562011306,0.024084756436830095
ITST,4,p,6,599,100.1669449081803,0,p,43.84378078116181,47,2292.959999991581,3.1562192188381886,4,134,6,0,0,5.0,0.9283184798753525,50.51698690213663,34.63738828148162,0.7477202064397233,1.5075532856539786,6.416492695588917e-05
ITST,4,p,7,918,65.359477124183,2,p,13.046873249910696,31,2446.4000000152737,17.953126750089304,4,135,6,0,0,5.0,0.9283184798753525,50.51698690213663,34.63738828148162,6.082209087016334,12.943139708379706,0.007735079470610289
ITST,4,p,6,463,129.58963282937364,2,p,62.42097125758927,65,2713.340000016615,2.5790287424107277,4,136,6,0,0,5.0,0.9283184798753525,50.51698690213663,34.63738828148162,5.878413012218516,12.483464893175617,0.0018197000558463083
ITST,4,p,2,710,84.50704225352112,1,p,31.580629700998873,41,2053.2100000418723,9.419370299001127,4,137,6,0,0,5.0,0.9283184798753525,50.51698690213663,34.63738828148162,3.2429907168012164,6.704933707759875,0.0011231364838265182
ITST,4,p,6,918,65.359477124183,1,p,13.046873249910696,34,1867.375000147149,20.953126750089304,4,138,6,0,0,5.0,0.9283184798753525,50.51698690213663,34.63738828148162,9.082209087016334,19.93130225211424,0.015195717087498197
ITST,4,p,2,463,129.58963282937364,2,p,62.42097125758927,55,3359.245000174269,-7.420971257589272,4,139,6,0,0,5.0,0.9283184798753525,50.51698690213663,34.63738828148162,-4.121586987781484,-7.916947086176443,0.001053358710392443
ITST,4,p,6,710,84.50704225352112,0,p,31.580629700998873,39,3042.2850002069026,7.419370299001127,4,140,6,0,0,5.0,0.9283184798753525,50.51698690213663,34.63738828148162,1.2429907168012164,2.5186090341040623,0.0002856704744877757
ITST,4,p,4,329,182.370820668693,0,p,87.06720173383901,78,2892.1599998138845,-9.067201733839013,4,141,6,0,0,5.0,0.9283184798753525,50.51698690213663,34.63738828148162,1.8047919186035557,3.6776779460699047,9.162981501922447e-05
ITST,4,p,7,774,77.51937984496124,1,p,25.354902613380577,35,2771.180000156164,9.645097386619423,4,142,6,0,0,5.0,0.9283184798753525,50.51698690213663,34.63738828148162,1.5558492461686626,3.162468741114719,0.0005646251105629952
ITST,4,p,5,358,167.5977653631285,2,p,80.97360155738828,68,3191.8700002133846,-12.973601557388278,4,143,6,0,0,5.0,0.9283184798753525,50.51698690213663,34.63738828148162,-3.973880174519863,-7.6443616983590505,0.002507471106566441
ITST,4,p,2,599,100.1669449081803,0,p,43.84378078116181,48,5383.075000019744,4.156219218838189,4,144,6,0,0,5.0,0.9283184798753525,50.51698690213663,34.63738828148162,1.7477202064397233,3.5593360541843446,0.00022508779303953439
ITST,4,p,5,774,77.51937984496124,1,p,25.354902613380577,31,4001.24999997206,5.6450973866194225,4,145,6,0,0,5.0,0.9283184798753525,50.51698690213663,34.63738828148162,-2.4441507538313374,-4.773431226268093,0.00018338817368712863
ITST,4,p,7,463,129.58963282937364,0,p,62.42097125758927,60,2774.205000139773,-2.4209712575892723,4,146,6,0,0,5.0,0.9283184798753525,50.51698690213663,34.63738828148162,0.8784130122185161,1.7733798676672945,2.6022518594307924e-05
ITST,4,p,4,504,119.04761904761905,0,p,56.30039424560527,55,2009.9149998277423,-1.3003942456052684,4,147,6,0,0,5.0,0.9283184798753525,50.51698690213663,34.63738828148162,0.11842906163452938,0.23727574204550422,6.566162851238216e-07
ITST,4,p,5,425,141.1764705882353,2,p,68.5984388693479,69,2389.10000002943,0.4015611306520981,4,148,6,0,0,5.0,0.9283184798753525,50.51698690213663,34.63738828148162,5.598986126923307,11.856239649204978,0.0018689962111700016
ITST,4,p,6,329,182.370820668693,0,p,87.06720173383901,67,3165.2150000445545,-20.067201733839013,4,149,6,0,0,5.0,0.9283184798753525,50.51698690213663,34.63738828148162,-9.195208081396444,-16.807267733890797,0.014372619320589412
ITST,4,p,4,425,141.1764705882353,1,p,68.5984388693479,71,2274.785000132397,2.401561130652098,4,150,6,0,0,5.0,0.9283184798753525,50.51698690213663,34.63738828148162,7.598986126923307,16.423864399069192,0.0035827208460811116
ITST,4,p,4,599,100.1669449081803,1,a,43.84378078116181,48,2755.8550001122057,4.156219218838189,5,151,6,0,0,5.0,0.9283184798753525,50.51698690213663,34.63738828148162,1.7477202064397233,3.5593360541843446,0.00022508779303953439
ITST,4,p,5,1000,60.0,1,a,6.875176187496734,26,1961.55000012368,19.124823812503266,5,152,6,0,0,5.0,0.9283184798753525,50.51698690213663,34.63738828148162,5.357638437146573,11.317305947833274,0.008338560299640224
ITST,4,p,2,302,198.67549668874173,2,a,93.24415345434716,77,2053.2100000418723,-16.244153454347156,5,153,6,0,0,5.0,0.9283184798753525,50.51698690213663,34.63738828148162,-3.4742775841805695,-6.71637612441581,0.0037601878443685975
ITST,4,p,3,550,109.0909090909091,1,a,50.0,48,2560.344999888912,-2.0,5,154,6,0,0,5.0,0.9283184798753525,50.51698690213663,34.63738828148162,-2.5169869021366296,-4.912128831717218,0.0002487975634991502
ITST,4,p,2,774,77.51937984496124,0,a,25.354902613380577,29,2155.70000000298,3.6450973866194225,5,155,6,0,0,5.0,0.9283184798753525,50.51698690213663,34.63738828148162,-4.444150753831337,-8.509428434577751,0.0010364571255953878
ITST,4,p,3,358,167.5977653631285,2,a,80.97360155738828,74,1205.2499998826534,-6.973601557388278,5,156,6,0,0,5.0,0.9283184798753525,50.51698690213663,34.63738828148162,2.026119825480137,4.137896248093662,0.00016691278482181804
ITST,4,p,2,918,65.359477124183,2,a,13.046873249910696,31,1206.705000018701,17.953126750089304,5,157,6,0,0,5.0,0.9283184798753525,50.51698690213663,34.63738828148162,6.082209087016334,12.943139708379706,0.007735079470610289
ITST,4,p,6,390,153.84615384615384,1,a,74.79787473312055,65,2649.3499998468906,-9.797874733120551,5,158,6,0,0,5.0,0.9283184798753525,50.51698690213663,34.63738828148162,-2.695659215869412,-5.2515090532646,0.0009435562793142755
ITST,4,p,4,1000,60.0,0,a,6.875176187496734,32,4526.240000035614,25.124823812503266,5,159,6,0,0,5.0,0.9283184798753525,50.51698690213663,34.63738828148162,11.357638437146573,25.518596055296733,0.02897530223136861
ITST,4,p,2,390,153.84615384615384,0,a,74.79787473312055,71,2056.605000048876,-3.797874733120551,5,160,6,0,0,5.0,0.9283184798753525,50.51698690213663,34.63738828148162,3.304340784130588,6.83601674267527,0.0006378386518189459
ITST,4,p,7,918,65.359477124183,2,a,13.046873249910696,27,2078.334999969229,13.953126750089304,5,161,6,0,0,5.0,0.9283184798753525,50.51698690213663,34.63738828148162,2.0822090870163343,4.254849580531821,0.0016690347899016823
ITST,4,p,6,504,119.04761904761905,1,a,56.30039424560527,54,1722.8900000918657,-2.3003942456052684,5,162,6,0,0,5.0,0.9283184798753525,50.51698690213663,34.63738828148162,-0.8815709383654706,-1.7486882759581153,3.8226178369540054e-05
ITST,4,p,7,710,84.50704225352112,1,a,31.580629700998873,45,2077.4350001011044,13.419370299001127,5,163,6,0,0,5.0,0.9283184798753525,50.51698690213663,34.63738828148162,7.242990716801216,15.597406584138316,0.004453708015888891
ITST,4,p,4,390,153.84615384615384,2,a,74.79787473312055,72,8691.534999990836,-2.797874733120551,5,164,6,0,0,5.0,0.9283184798753525,50.51698690213663,34.63738828148162,4.304340784130588,8.995504299174376,0.0011960719104586834
ITST,4,p,6,329,182.370820668693,1,a,87.06720173383901,78,2738.069999963045,-9.067201733839013,5,165,6,0,0,5.0,0.9283184798753525,50.51698690213663,34.63738828148162,1.8047919186035557,3.6776779460699047,9.162981501922447e-05
ITST,4,p,7,390,153.84615384615384,0,a,74.79787473312055,72,3573.6849999520928,-2.797874733120551,5,166,6,0,0,5.0,0.9283184798753525,50.51698690213663,34.63738828148162,4.304340784130588,8.995504299174376,0.0011960719104586834
ITST,4,p,5,302,198.67549668874173,2,a,93.24415345434716,74,2100.1150000374764,-19.244153454347156,5,167,6,0,0,5.0,0.9283184798753525,50.51698690213663,34.63738828148162,-6.4742775841805695,-12.151830539317638,0.010152792342145832
ITST,4,p,7,599,100.1669449081803,2,a,43.84378078116181,40,1506.2799998559058,-3.8437807811618114,5,168,6,0,0,5.0,0.9283184798753525,50.51698690213663,34.63738828148162,-6.252279793560277,-11.760695495182002,0.0016759257902618841
ITST,4,p,3,425,141.1764705882353,2,a,68.5984388693479,70,3388.5999999474734,1.401561130652098,5,169,6,0,0,5.0,0.9283184798753525,50.51698690213663,34.63738828148162,6.598986126923307,14.117201495255868,0.00265676964154304
ITST,4,p,4,774,77.51937984496124,1,a,25.354902613380577,37,2305.500000016764,11.645097386619423,5,170,6,0,0,5.0,0.9283184798753525,50.51698690213663,34.63738828148162,3.5558492461686626,7.375085283175962,0.0017989309993471211
ITST,4,p,7,358,167.5977653631285,2,a,80.97360155738828,65,1496.260000159964,-15.973601557388278,5,171,6,0,0,5.0,0.9283184798753525,50.51698690213663,34.63738828148162,-6.973880174519863,-13.02574420786854,0.0066539454287542436
ITST,4,p,5,774,77.51937984496124,0,a,25.354902613380577,32,2159.6349999308586,6.6450973866194225,5,172,6,0,0,5.0,0.9283184798753525,50.51698690213663,34.63738828148162,-1.4441507538313374,-2.848606653200321,1.777555281954717e-05
ITST,4,p,4,358,167.5977653631285,1,a,80.97360155738828,63,3157.0000001229346,-17.973601557388278,5,173,6,0,0,5.0,0.9283184798753525,50.51698690213663,34.63738828148162,-8.973880174519863,-16.437980740367053,0.010520556147737035
ITST,4,p,5,599,100.1669449081803,2,a,43.84378078116181,44,1135.424999985844,0.15621921883818857,5,174,6,0,0,5.0,0.9283184798753525,50.51698690213663,34.63738828148162,-2.2522797935602767,-4.407093420055747,0.000168157955681706
ITST,4,p,6,843,71.17437722419929,1,a,19.194949373496982,27,1921.989999944344,7.805050626503018,5,175,6,0,0,5.0,0.9283184798753525,50.51698690213663,34.63738828148162,-2.176856910518957,-4.262703489773076,0.00010720941892824786
ITST,4,p,5,425,141.1764705882353,1,a,68.5984388693479,71,1627.7550000231713,2.401561130652098,5,176,6,0,0,5.0,0.9283184798753525,50.51698690213663,34.63738828148162,7.598986126923307,16.423864399069192,0.0035827208460811116
ITST,4,p,6,774,77.51937984496124,0,a,25.354902613380577,29,1913.209999911487,3.6450973866194225,5,177,6,0,0,5.0,0.9283184798753525,50.51698690213663,34.63738828148162,-4.444150753831337,-8.509428434577751,0.0010364571255953878
ITST,4,p,3,843,71.17437722419929,0,a,19.194949373496982,24,1775.7050001528114,4.805050626503018,5,178,6,0,0,5.0,0.9283184798753525,50.51698690213663,34.63738828148162,-5.176856910518957,-9.84112861272202,0.0017499416341844958
ITST,4,p,2,504,119.04761904761905,0,a,56.30039424560527,54,6168.99499995634,-2.3003942456052684,5,179,6,0,0,5.0,0.9283184798753525,50.51698690213663,34.63738828148162,-0.8815709383654706,-1.7486882759581153,3.8226178369540054e-05
ITST,4,p,3,652,92.02453987730061,2,a,37.727982709047225,42,1430.7349999435246,4.272017290952775,5,180,6,0,0,5.0,0.9283184798753525,50.51698690213663,34.63738828148162,-0.015574344060880208,-0.031161791106719648,1.8895377856957906e-05
ITST,5,a,3,504,119.04761904761905,1,a,56.30039424560527,55,2645.2299999946263,-1.3003942456052684,0,1,4,2,0,0.0,0.0212439694162547,51.67968049685258,0.26415036611669107,3.2870344742142947,557030.8779348887,0.0008181035696617428
ITST,5,a,7,918,65.359477124183,2,a,13.046873249910696,41,3383.529999991879,27.953126750089304,0,2,4,2,0,0.0,0.0212439694162547,51.67968049685258,0.26415036611669107,-10.48445685764873,-99.99999999988735,0.0185751247503243
ITST,5,a,3,425,141.1764705882353,1,a,68.5984388693479,56,2464.915000004112,-12.598438869347902,0,3,4,2,0,0.0,0.0212439694162547,51.67968049685258,0.26415036611669107,4.222063814416671,6479253.402207466,0.0018340575145421585
ITST,5,a,2,329,182.370820668693,2,a,87.06720173383901,45,2710.470000005444,-42.06720173383901,0,4,4,2,0,0.0,0.0212439694162547,51.67968049685258,0.26415036611669107,-6.87550679503088,-99.99999853929629,0.007749803569419108
ITST,5,a,7,504,119.04761904761905,2,a,56.30039424560527,55,3969.7850000084154,-1.3003942456052684,0,5,4,2,0,0.0,0.0212439694162547,51.67968049685258,0.26415036611669107,3.2870344742142947,557030.8779348887,0.0008181035696617429
ITST,5,a,4,710,84.50704225352112,1,a,31.580629700998873,46,2279.819999996107,14.419370299001127,0,6,4,2,0,0.0,0.0212439694162547,51.67968049685258,0.26415036611669107,-5.5823708286901805,-99.99995652489582,0.002483282455136925
ITST,5,a,3,1000,60.0,0,a,6.875176187496734,54,2925.9949999977835,47.124823812503266,0,7,4,2,0,0.0,0.0212439694162547,51.67968049685258,0.26415036611669107,2.548148263123224,80051.31409632268,0.0018346113525267464
ITST,5,a,5,710,84.50704225352112,0,a,31.580629700998873,47,1721.8850000062955,15.419370299001127,0,8,4,2,0,0.0,0.0212439694162547,51.67968049685258,0.26415036611669107,-4.5823708286901805,-99.99940040683022,0.0016305650554355848
ITST,5,a,2,390,153.84615384615384,1,a,74.79787473312055,56,2510.980000006384,-18.79787473312055,0,9,4,2,0,0.0,0.0212439694162547,51.67968049685258,0.26415036611669107,4.1893121493540235,5945659.592613912,0.002276069974744941
ITST,5,a,6,918,65.359477124183,0,a,13.046873249910696,45,2649.055000001681,31.953126750089304,0,10,4,2,0,0.0,0.0212439694162547,51.67968049685258,0.26415036611669107,-6.4844568576487305,-99.99999592423703,0.006838261905798872
ITST,5,a,2,774,77.51937984496124,0,a,25.354902613380577,55,2154.85500000068,29.645097386619423,0,11,4,2,0,0.0,0.0212439694162547,51.67968049685258,0.26415036611669107,3.450519733100556,855493.8482571505,0.0015939905356820421
ITST,5,a,6,550,109.0909090909091,1,a,50.0,44,2023.465000005672,-6.0,0,12,4,2,0,0.0,0.0212439694162547,51.67968049685258,0.26415036611669107,-7.679680496852583,-99.99999982294308,0.0032617586224196722
ITST,5,a,4,843,71.17437722419929,0,a,19.194949373496982,52,8064.689999999246,32.80505062650302,0,13,4,2,0,0.0,0.0212439694162547,51.67968049685258,0.26415036611669107,0.48306281117209693,255.22713292996042,9.015060488156424e-05
ITST,5,a,7,710,84.50704225352112,2,a,31.580629700998873,45,8070.275000005495,13.419370299001127,0,14,4,2,0,0.0,0.0212439694162547,51.67968049685258,0.26415036611669107,-6.5823708286901805,-99.99999684772146,0.003514691365860999
ITST,5,a,5,425,141.1764705882353,2,a,68.5984388693479,54,6844.900000010966,-14.598438869347902,0,15,4,2,0,0.0,0.0212439694162547,51.67968049685258,0.26415036611669107,2.2220638144166713,33964.30849093714,0.0005715489035624757
ITST,5,a,6,329,182.370820668693,2,a,87.06720173383901,47,2317.014999993262,-40.06720173383901,0,16,4,2,0,0.0,0.0212439694162547,51.67968049685258,0.26415036611669107,-4.87550679503088,-99.99972216034809,0.0037510497180204974
ITST,5,a,3,710,84.50704225352112,0,a,31.580629700998873,46,2078.9499999955297,14.419370299001127,0,17,4,2,0,0.0,0.0212439694162547,51.67968049685258,0.26415036611669107,-5.5823708286901805,-99.99995652489582,0.002483282455136925
ITST,5,a,4,425,141.1764705882353,1,a,68.5984388693479,62,1631.200000003446,-6.598438869347902,0,18,4,2,0,0.0,0.0212439694162547,51.67968049685258,0.26415036611669107,10.222063814416671,44589021459314.34,0.009916639231349549
ITST,5,a,3,358,167.5977653631285,2,a,80.97360155738828,44,1950.0699999916835,-36.97360155738828,0,19,4,2,0,0.0,0.0212439694162547,51.67968049685258,0.26415036611669107,-7.843314260679314,-99.99999988475204,0.00811578000684463
ITST,5,a,2,1000,60.0,0,a,6.875176187496734,62,1936.904999995022,55.124823812503266,0,20,4,2,0,0.0,0.0212439694162547,51.67968049685258,0.26415036611669107,10.548148263123224,104915344610286.7,0.026426822936104537
ITST,5,a,4,358,167.5977653631285,2,a,80.97360155738828,56,1907.600000005914,-24.973601557388278,0,21,4,2,0,0.0,0.0212439694162547,51.67968049685258,0.26415036611669107,4.156685739320686,5457802.395271231,0.002840118975292947
ITST,5,a,7,463,129.58963282937364,0,a,62.42097125758927,35,1628.6499999987427,-27.420971257589272,0,22,4,2,0,0.0,0.0212439694162547,51.67968049685258,0.26415036611669107,-16.74530057895693,-100.0,0.019747623823363546
ITST,5,a,2,550,109.0909090909091,0,a,50.0,58,2814.949999999953,8.0,0,23,4,2,0,0.0,0.0212439694162547,51.67968049685258,0.26415036611669107,6.320319503147417,1594914812.6727054,0.0026368365922444393
ITST,5,a,5,918,65.359477124183,2,a,13.046873249910696,59,5086.745000007795,45.953126750089304,0,24,4,2,0,0.0,0.0212439694162547,51.67968049685258,0.26415036611669107,7.5155431423512695,36714156501.27549,0.011002968360062882
ITST,5,a,6,463,129.58963282937364,0,a,62.42097125758927,57,3503.2399999909103,-5.420971257589272,0,25,4,2,0,0.0,0.0212439694162547,51.67968049685258,0.26415036611669107,5.254699421043071,97350756.0349212,0.0022596041367363
ITST,5,a,5,599,100.1669449081803,1,a,43.84378078116181,42,3750.125000005937,-1.8437807811618114,0,26,4,2,0,0.0,0.0212439694162547,51.67968049685258,0.26415036611669107,-9.647157145641572,-99.99999999898621,0.005522711261280541
ITST,5,a,7,302,198.67549668874173,0,a,93.24415345434716,63,4329.505000001518,-30.244153454347156,0,27,4,2,0,0.0,0.0212439694162547,51.67968049685258,0.26415036611669107,11.09186032379997,436980442361377.2,0.02906021474565254
ITST,5,a,4,550,109.0909090909091,2,a,50.0,56,3689.394999993965,6.0,0,28,4,2,0,0.0,0.0212439694162547,51.67968049685258,0.26415036611669107,4.320319503147417,8384945.5793273095,0.0012856221584114785
ITST,5,a,5,358,167.5977653631285,2,a,80.97360155738828,56,2950.33500000136,-24.973601557388278,0,29,4,2,0,0.0,0.0212439694162547,51.67968049685258,0.26415036611669107,4.156685739320686,5457802.395271231,0.002840118975292947
ITST,5,a,6,652,92.02453987730061,2,a,37.727982709047225,36,10713.669999997364,-1.7279827090472253,0,30,4,2,0,0.0,0.0212439694162547,51.67968049685258,0.26415036611669107,-15.614847339644676,-100.0,0.017111519677656794
ITST,5,a,4,550,109.0909090909091,0,p,50.0,56,17185.195000012754,6.0,1,31,4,2,0,0.0,0.0212439694162547,51.67968049685258,0.26415036611669107,4.320319503147417,8384945.5793273095,0.0012856221584114785
ITST,5,a,7,774,77.51937984496124,1,p,25.354902613380577,44,4638.214999999036,18.645097386619423,1,32,4,2,0,0.0,0.0212439694162547,51.67968049685258,0.26415036611669107,-7.549480266899444,-99.99999975083263,0.0059017003221469
ITST,5,a,3,504,119.04761904761905,2,p,56.30039424560527,44,7893.035000000964,-12.300394245605268,1,33,4,2,0,0.0,0.0212439694162547,51.67968049685258,0.26415036611669107,-7.712965525785705,-99.99999983775149,0.0034739253450959177
ITST,5,a,6,774,77.51937984496124,2,p,25.354902613380577,44,11119.93000000075,18.645097386619423,1,34,4,2,0,0.0,0.0212439694162547,51.67968049685258,0.26415036611669107,-7.549480266899444,-99.99999975083263,0.0059017003221469
ITST,5,a,3,843,71.17437722419929,0,p,19.194949373496982,56,3073.11500000651,36.80505062650302,1,35,4,2,0,0.0,0.0212439694162547,51.67968049685258,0.26415036611669107,4.483062811172097,12851888.042496225,0.0032786461135152017
ITST,5,a,4,463,129.58963282937364,0,p,62.42097125758927,57,32649.895000009565,-5.420971257589272,1,36,4,2,0,0.0,0.0212439694162547,51.67968049685258,0.26415036611669107,5.254699421043071,97350756.0349212,0.0022596041367363
ITST,5,a,2,774,77.51937984496124,1,p,25.354902613380577,53,26174.015000011423,27.645097386619423,1,37,4,2,0,0.0,0.0212439694162547,51.67968049685258,0.26415036611669107,1.4505197331005562,4398.166866473136,0.00034961605250632207
ITST,5,a,3,463,129.58963282937364,0,p,62.42097125758927,43,2614.659999992,-19.420971257589272,1,38,4,2,0,0.0,0.0212439694162547,51.67968049685258,0.26415036611669107,-8.745300578956929,-99.99999998919274,0.0052042123652154115
ITST,5,a,4,774,77.51937984496124,2,p,25.354902613380577,46,14472.714999996242,20.645097386619423,1,39,4,2,0,0.0,0.0212439694162547,51.67968049685258,0.26415036611669107,-5.549480266899444,-99.99995260601318,0.0030908859166203224
ITST,5,a,2,918,65.359477124183,2,p,13.046873249910696,45,5129.799999995157,31.953126750089304,1,40,4,2,0,0.0,0.0212439694162547,51.67968049685258,0.26415036611669107,-6.4844568576487305,-99.99999592423703,0.006838261905798872
ITST,5,a,3,710,84.50704225352112,2,p,31.580629700998873,53,33751.32500000473,21.419370299001127,1,41,4,2,0,0.0,0.0212439694162547,51.67968049685258,0.26415036611669107,1.4176291713098195,4026.2254201497763,0.00026678238870494553
ITST,5,a,5,504,119.04761904761905,2,p,56.30039424560527,55,3072.469999999157,-1.3003942456052684,1,42,4,2,0,0.0,0.0212439694162547,51.67968049685258,0.26415036611669107,3.2870344742142947,557030.8779348887,0.0008181035696617429
ITST,5,a,6,358,167.5977653631285,1,p,80.97360155738828,57,18172.89499999606,-23.973601557388278,1,43,4,2,0,0.0,0.0212439694162547,51.67968049685258,0.26415036611669107,5.156685739320686,75273348.07883756,0.004256405372767276
ITST,5,a,4,1000,60.0,0,p,6.875176187496734,56,3257.920000003651,49.124823812503266,1,44,4,2,0,0.0,0.0212439694162547,51.67968049685258,0.26415036611669107,4.548148263123224,15245437.416958747,0.005294759019455876
ITST,5,a,3,302,198.67549668874173,1,p,93.24415345434716,40,2516.7599999986123,-53.244153454347156,1,45,4,2,0,0.0,0.0212439694162547,51.67968049685258,0.26415036611669107,-11.90813967620003,-99.99999999999731,0.030154377994699083
ITST,5,a,6,599,100.1669449081803,2,p,43.84378078116181,47,46964.61999999883,3.1562192188381886,1,46,4,2,0,0.0,0.0212439694162547,51.67968049685258,0.26415036611669107,-4.647157145641572,-99.99949414604409,0.001191997315836261
ITST,5,a,4,302,198.67549668874173,2,p,93.24415345434716,45,20261.700000002747,-48.244153454347156,1,47,4,2,0,0.0,0.0212439694162547,51.67968049685258,0.26415036611669107,-6.9081396762000296,-99.99999865917167,0.009769603732184882
ITST,5,a,5,774,77.51937984496124,1,p,25.354902613380577,41,5498.535000006086,15.645097386619423,1,48,4,2,0,0.0,0.0212439694162547,51.67968049685258,0.26415036611669107,-10.549480266899444,-99.99999999990501,0.011807583967396057
ITST,5,a,2,390,153.84615384615384,2,p,74.79787473312055,58,1648.269999990589,-16.79787473312055,1,49,4,2,0,0.0,0.0212439694162547,51.67968049685258,0.26415036611669107,6.1893121493540235,1130939565.3497365,0.004752914854232954
ITST,5,a,7,504,119.04761904761905,2,p,56.30039424560527,43,2185.0149999954738,-13.300394245605268,1,50,4,2,0,0.0,0.0212439694162547,51.67968049685258,0.26415036611669107,-8.712965525785705,-99.99999998823576,0.004475399419486148
ITST,5,a,5,390,153.84615384615384,1,p,74.79787473312055,57,1753.790000002482,-17.79787473312055,1,51,4,2,0,0.0,0.0212439694162547,51.67968049685258,0.26415036611669107,5.1893121493540235,82001700.97973925,0.003401780091984984
ITST,5,a,7,358,167.5977653631285,0,p,80.97360155738828,41,1742.5450000009732,-39.97360155738828,1,52,4,2,0,0.0,0.0212439694162547,51.67968049685258,0.26415036611669107,-10.843314260679314,-99.99999999995606,0.015859050399706674
ITST,5,a,5,918,65.359477124183,2,p,13.046873249910696,56,1518.869999999879,42.953126750089304,1,53,4,2,0,0.0,0.0212439694162547,51.67968049685258,0.26415036611669107,4.5155431423512695,13995303.34876813,0.004185757566159488
ITST,5,a,6,390,153.84615384615384,2,p,74.79787473312055,46,2276.68999999878,-28.79787473312055,1,54,4,2,0,0.0,0.0212439694162547,51.67968049685258,0.26415036611669107,-5.8106878506459765,-99.99997611930897,0.003417324277780508
ITST,5,a,5,302,198.67549668874173,0,p,93.24415345434716,54,1981.9699999934528,-39.244153454347156,1,55,4,2,0,0.0,0.0212439694162547,51.67968049685258,0.26415036611669107,2.0918603237999704,24105.69685708945,0.0012826878209476426
ITST,5,a,6,843,71.17437722419929,2,p,19.194949373496982,44,1757.6200000039537,24.805050626503018,1,56,4,2,0,0.0,0.0212439694162547,51.67968049685258,0.26415036611669107,-7.516937188827903,-99.99999972862003,0.00740195660809125
ITST,5,a,2,358,167.5977653631285,2,p,80.97360155738828,59,1652.2750000003723,-21.973601557388278,1,57,4,2,0,0.0,0.0212439694162547,51.67968049685258,0.26415036611669107,7.156685739320686,14317721101.804602,0.00794555885237915
ITST,5,a,7,390,153.84615384615384,1,p,74.79787473312055,44,1866.5649999893503,-30.79787473312055,1,58,4,2,0,0.0,0.0212439694162547,51.67968049685258,0.26415036611669107,-7.8106878506459765,-99.99999987445055,0.006350670878482747
ITST,5,a,2,550,109.0909090909091,2,p,50.0,56,1786.9099999952596,6.0,1,59,4,2,0,0.0,0.0212439694162547,51.67968049685258,0.26415036611669107,4.320319503147417,8384945.5793273095,0.0012856221584114785
ITST,5,a,7,918,65.359477124183,2,p,13.046873249910696,43,2081.360000011045,29.953126750089304,1,60,4,2,0,0.0,0.0212439694162547,51.67968049685258,0.26415036611669107,-8.48445685764873,-99.99999997857225,0.011988538940599633
ITST,5,a,3,463,129.58963282937364,0,a,62.42097125758927,54,1839.0199999994363,-8.420971257589272,2,61,4,2,0,0.0,0.0212439694162547,51.67968049685258,0.26415036611669107,2.254699421043071,37010.0584265974,0.000479195704630382
ITST,5,a,6,1000,60.0,1,a,6.875176187496734,41,1399.424999995972,34.124823812503266,2,62,4,2,0,0.0,0.0212439694162547,51.67968049685258,0.26415036611669107,-10.451851736876776,-99.99999999987729,0.023022111488173805
ITST,5,a,5,774,77.51937984496124,1,a,25.354902613380577,57,1838.789999994333,31.645097386619423,2,63,4,2,0,0.0,0.0212439694162547,51.67968049685258,0.26415036611669107,5.450519733100556,162741935.79055944,0.0037395181052360515
ITST,5,a,3,329,182.370820668693,0,a,87.06720173383901,46,1237.685000000056,-41.06720173383901,2,64,4,2,0,0.0,0.0212439694162547,51.67968049685258,0.26415036611669107,-5.87550679503088,-99.99997985449399,0.0055710387285667125
ITST,5,a,7,425,141.1764705882353,1,a,68.5984388693479,58,3634.344999998575,-10.598438869347902,2,65,4,2,0,0.0,0.0212439694162547,51.67968049685258,0.26415036611669107,6.222063814416671,1232434150.7016358,0.003812408772833232
ITST,5,a,2,710,84.50704225352112,2,a,31.580629700998873,45,13027.749999993714,13.419370299001127,2,66,4,2,0,0.0,0.0212439694162547,51.67968049685258,0.26415036611669107,-6.5823708286901805,-99.99999684772146,0.003514691365860999
ITST,5,a,5,329,182.370820668693,1,a,87.06720173383901,57,2618.2100000004284,-30.067201733839013,2,67,4,2,0,0.0,0.0212439694162547,51.67968049685258,0.26415036611669107,5.12449320496912,69175778.2623954,0.005283830279398187
ITST,5,a,7,652,92.02453987730061,1,a,37.727982709047225,55,2812.3349999950733,17.272017290952775,2,68,4,2,0,0.0,0.0212439694162547,51.67968049685258,0.26415036611669107,3.385152660355324,720632.8024078322,0.000997136001310135
ITST,5,a,2,463,129.58963282937364,0,a,62.42097125758927,58,18566.220000007652,-4.420971257589272,2,69,4,2,0,0.0,0.0212439694162547,51.67968049685258,0.26415036611669107,6.254699421043071,1342628271.9408412,0.003145364027394292
ITST,5,a,4,774,77.51937984496124,0,a,25.354902613380577,56,2056.049999999348,30.645097386619423,2,70,4,2,0,0.0,0.0212439694162547,51.67968049685258,0.26415036611669107,4.450519733100556,11799945.960726071,0.0025541101846617603
ITST,5,a,2,843,71.17437722419929,1,a,19.194949373496982,57,2726.949999996694,37.80505062650302,2,71,4,2,0,0.0,0.0212439694162547,51.67968049685258,0.26415036611669107,5.483062811172097,177249946.73312867,0.004788728168823452
ITST,5,a,6,599,100.1669449081803,2,a,43.84378078116181,44,1817.8800000024492,0.15621921883818857,2,72,4,2,0,0.0,0.0212439694162547,51.67968049685258,0.26415036611669107,-7.647157145641572,-99.99999980716892,0.003410454122070417
ITST,5,a,4,302,198.67549668874173,0,a,93.24415345434716,56,1705.0549999987709,-37.244153454347156,2,73,4,2,0,0.0,0.0212439694162547,51.67968049685258,0.26415036611669107,4.0918603237999704,4604052.2999215415,0.004321507386294473
ITST,5,a,2,599,100.1669449081803,2,a,43.84378078116181,59,1765.110000007553,15.156219218838189,2,74,4,2,0,0.0,0.0212439694162547,51.67968049685258,0.26415036611669107,7.352842854358428,23956187050.505466,0.0037173169218720228
ITST,5,a,5,1000,60.0,1,a,6.875176187496734,39,1919.3950000046752,32.124823812503266,2,75,4,2,0,0.0,0.0212439694162547,51.67968049685258,0.26415036611669107,-12.451851736876776,-99.99999999999936,0.03300148996607126
ITST,5,a,4,599,100.1669449081803,1,a,43.84378078116181,61,1712.5400000079535,17.15621921883819,2,76,4,2,0,0.0,0.0212439694162547,51.67968049685258,0.26415036611669107,9.352842854358428,4556693195619.595,0.0059114041410292415
ITST,5,a,2,302,198.67549668874173,0,a,93.24415345434716,56,37823.33499999368,-37.244153454347156,2,77,4,2,0,0.0,0.0212439694162547,51.67968049685258,0.26415036611669107,4.0918603237999704,4604052.2999215415,0.004321507386294473
ITST,5,a,3,774,77.51937984496124,2,a,25.354902613380577,47,2052.6200000019744,21.645097386619423,2,78,4,2,0,0.0,0.0212439694162547,51.67968049685258,0.26415036611669107,-4.549480266899444,-99.9993463589952,0.002023411121248892
ITST,5,a,6,302,198.67549668874173,0,a,93.24415345434716,45,1979.984999998007,-48.244153454347156,2,79,4,2,0,0.0,0.0212439694162547,51.67968049685258,0.26415036611669107,-6.9081396762000296,-99.99999865917167,0.009769603732184882
ITST,5,a,7,550,109.0909090909091,1,a,50.0,56,2125.639999998501,6.0,2,80,4,2,0,0.0,0.0212439694162547,51.67968049685258,0.26415036611669107,4.320319503147417,8384945.5793273095,0.0012856221584114785
ITST,5,a,4,1000,60.0,1,a,6.875176187496734,43,1992.8599999984729,36.124823812503266,2,81,4,2,0,0.0,0.0212439694162547,51.67968049685258,0.26415036611669107,-8.451851736876776,-99.99999997665822,0.014834669829586557
ITST,5,a,3,599,100.1669449081803,0,a,43.84378078116181,58,1773.4599999967031,14.156219218838189,2,82,4,2,0,0.0,0.0212439694162547,51.67968049685258,0.26415036611669107,6.352842854358428,1737007232.1653643,0.0028102590928096188
ITST,5,a,7,1000,60.0,1,a,6.875176187496734,47,1527.849999998463,40.124823812503266,2,83,4,2,0,0.0,0.0212439694162547,51.67968049685258,0.26415036611669107,-4.451851736876776,-99.99915550257778,0.0038355969703427074
ITST,5,a,5,463,129.58963282937364,1,a,62.42097125758927,56,2156.7749999959487,-6.420971257589272,2,84,4,2,0,0.0,0.0212439694162547,51.67968049685258,0.26415036611669107,4.254699421043071,7058583.824051901,0.0015199894527229843
ITST,5,a,6,774,77.51937984496124,0,a,25.354902613380577,58,1945.4650000114923,32.645097386619426,2,85,4,2,0,0.0,0.0212439694162547,51.67968049685258,0.26415036611669107,6.450519733100556,2244480158.924862,0.005150214297404913
