subject,first_type,pitch,ioi,tempo,loudness,type,true_score,response,rt,error,block,trial,test_correct,test_incorrect,test_skipped,extreme_responses,pearsonr,intercept,slope,residual,cooks
3,a,6,843,1,2,a,19.19495,93,6767.955000046641,73.80505,0,1,5,0,1,38.0,0.8606991049683148,433.1745681411931,-61.67133560298939,75.30318207198982,0.20490712525041943
3,a,4,550,3,1,a,50.0,50,10831.839999882504,0.0,0,2,5,0,1,38.0,0.8606991049683148,433.1745681411931,-61.67133560298939,5.966519622751335,0.00038964070870088223
3,a,6,463,4,1,a,62.42097,54,5644.530000165105,-8.420969999999997,0,3,5,0,1,38.0,0.8606991049683148,433.1745681411931,-61.67133560298939,-0.6527431490935669,4.1690287012464816e-05
3,a,3,843,1,1,a,19.19495,16,6750.789999961853,-3.1949499999999986,0,4,5,0,1,38.0,0.8606991049683148,433.1745681411931,-61.67133560298939,-1.696817928010173,0.00037496917362072203
3,a,6,550,3,1,a,50.0,52,5728.25500019826,2.0,0,5,5,0,1,38.0,0.8606991049683148,433.1745681411931,-61.67133560298939,7.966519622751335,0.0007669466415857878
3,a,7,1000,1,0,a,6.87518,0,3273.884999798611,-6.87518,0,6,5,0,1,38.0,0.8606991049683148,433.1745681411931,-61.67133560298939,-7.164074067764164,0.004581313415164045
3,a,5,390,4,1,a,74.79787,100,5536.019999999553,25.202129999999997,0,7,5,0,1,38.0,0.8606991049683148,433.1745681411931,-61.67133560298939,34.765669663984895,0.03460528768688053
3,a,2,843,1,0,a,19.19495,0,9917.755000060424,-19.19495,0,8,5,0,1,38.0,0.8606991049683148,433.1745681411931,-61.67133560298939,-17.696817928010173,0.013794136879606853
3,a,4,652,2,2,a,37.72798,45,15976.07500012964,7.272019999999998,0,9,5,0,1,38.0,0.8606991049683148,433.1745681411931,-61.67133560298939,11.458434759711864,0.0020314493108572434
3,a,7,599,3,0,a,43.84378,52,7952.264999970794,8.156219999999998,0,10,5,0,1,38.0,0.8606991049683148,433.1745681411931,-61.67133560298939,13.22975614509501,0.002457657458121645
3,a,5,358,5,0,a,80.9736,76,8431.480000028387,-4.973600000000005,0,11,5,0,1,38.0,0.8606991049683148,433.1745681411931,-61.67133560298939,5.485755187573915,0.0009194297646946453
3,a,3,710,2,0,a,31.58063,14,2806.7200002260506,-17.58063,0,12,5,0,1,38.0,0.8606991049683148,433.1745681411931,-61.67133560298939,-14.285908851592271,0.005703670447502741
3,a,6,329,5,0,a,87.0672,65,23767.565000103787,-22.0672,0,13,5,0,1,38.0,0.8606991049683148,433.1745681411931,-61.67133560298939,-10.723945419434031,0.005904825175861953
3,a,2,550,3,2,a,50.0,49,6739.0899998135865,-1.0,0,14,5,0,1,38.0,0.8606991049683148,433.1745681411931,-61.67133560298939,4.966519622751335,0.00024844308793240067
3,a,4,302,5,0,a,93.24415,88,7938.2100000511855,-5.244150000000005,0,15,5,0,1,38.0,0.8606991049683148,433.1745681411931,-61.67133560298939,6.995092883710186,0.0025974695871713504
3,a,2,710,2,2,a,31.58063,9,6272.869999986142,-22.58063,0,16,5,0,1,38.0,0.8606991049683148,433.1745681411931,-61.67133560298939,-19.28590885159227,0.009957120565620394
3,a,7,358,5,2,a,80.9736,67,7550.909999990836,-13.973600000000005,0,17,5,0,1,38.0,0.8606991049683148,433.1745681411931,-61.67133560298939,-3.514244812426085,0.0006191915828163123
3,a,5,599,3,2,a,43.84378,51,5721.209999872372,7.156219999999998,0,18,5,0,1,38.0,0.8606991049683148,433.1745681411931,-61.67133560298939,12.22975614509501,0.0020692842251459655
3,a,2,329,5,1,a,87.0672,91,5769.359999801964,3.9328000000000003,0,19,5,0,1,38.0,0.8606991049683148,433.1745681411931,-61.67133560298939,15.276054580565969,0.010389803789367626
3,a,7,652,2,1,a,37.72798,6,5139.744999818504,-31.727980000000002,0,20,5,0,1,38.0,0.8606991049683148,433.1745681411931,-61.67133560298939,-27.541565240288136,0.01588800078061098
3,a,4,390,4,0,a,74.79787,72,4284.014999866486,-2.797870000000003,0,21,5,0,1,38.0,0.8606991049683148,433.1745681411931,-61.67133560298939,6.7656696639848946,0.0011167165913006408
3,a,5,843,1,1,a,19.19495,0,3807.855000020936,-19.19495,0,22,5,0,1,38.0,0.8606991049683148,433.1745681411931,-61.67133560298939,-17.696817928010173,0.013794136879606853
3,a,7,463,4,1,a,62.42097,52,9843.485000077637,-10.420969999999997,0,23,5,0,1,38.0,0.8606991049683148,433.1745681411931,-61.67133560298939,-2.652743149093567,0.00023206487963964666
3,a,3,358,5,1,a,80.9736,69,11115.624999860302,-11.973600000000005,0,24,5,0,1,38.0,0.8606991049683148,433.1745681411931,-61.67133560298939,-1.5142448124260852,0.0001591542686427335
3,a,2,425,4,0,a,68.59844,60,7143.300000112504,-8.598439999999997,0,25,5,0,1,38.0,0.8606991049683148,433.1745681411931,-61.67133560298939,0.06585409476175386,1.0296867685003614e-05
3,a,3,599,3,2,a,43.84378,47,8284.690000116825,3.1562199999999976,0,26,5,0,1,38.0,0.8606991049683148,433.1745681411931,-61.67133560298939,8.22975614509501,0.0008495979687124476
3,a,5,710,2,1,a,31.58063,48,5424.865000182763,16.41937,0,27,5,0,1,38.0,0.8606991049683148,433.1745681411931,-61.67133560298939,19.71409114840773,0.008003784778256931
3,a,4,1000,1,1,a,6.87518,0,3197.110000066459,-6.87518,0,28,5,0,1,38.0,0.8606991049683148,433.1745681411931,-61.67133560298939,-7.164074067764164,0.004581313415164045
3,a,3,463,4,1,a,62.42097,59,6798.210000153631,-3.420969999999997,0,29,5,0,1,38.0,0.8606991049683148,433.1745681411931,-61.67133560298939,4.347256850906433,0.00023979711680354314
3,a,6,774,2,1,a,25.3549,11,8191.224999958649,-14.3549,0,30,5,0,1,38.0,0.8606991049683148,433.1745681411931,-61.67133560298939,-11.963246837636131,0.0052779237026740105
3,a,6,710,2,0,p,31.58063,44,11389.109999872744,12.41937,1,31,5,0,1,38.0,0.8606991049683148,433.1745681411931,-61.67133560298939,15.714091148407729,0.004907520184235694
3,a,2,390,4,1,p,74.79787,73,6669.90500013344,-1.7978700000000032,1,32,5,0,1,38.0,0.8606991049683148,433.1745681411931,-61.67133560298939,7.7656696639848946,0.001510689021103584
3,a,5,599,3,1,p,43.84378,35,10200.385000091046,-8.843780000000002,1,33,5,0,1,38.0,0.8606991049683148,433.1745681411931,-61.67133560298939,-3.77024385490499,0.00039508328391622783
3,a,6,1000,1,0,p,6.87518,0,2920.1400000602007,-6.87518,1,34,5,0,1,38.0,0.8606991049683148,433.1745681411931,-61.67133560298939,-7.164074067764164,0.004581313415164045
3,a,4,550,3,0,p,50.0,51,4413.704999955371,1.0,1,35,5,0,1,38.0,0.8606991049683148,433.1745681411931,-61.67133560298939,6.966519622751335,0.0005624752265853445
3,a,5,358,5,0,p,80.9736,78,3656.704999972135,-2.9736000000000047,1,36,5,0,1,38.0,0.8606991049683148,433.1745681411931,-61.67133560298939,7.485755187573915,0.0018139102194693172
3,a,6,550,3,0,p,50.0,50,7733.424999983981,0.0,1,37,5,0,1,38.0,0.8606991049683148,433.1745681411931,-61.67133560298939,5.966519622751335,0.0003896407087008822
3,a,5,918,1,1,p,13.04687,11,8456.13000006415,-2.04687,1,38,5,0,1,38.0,0.8606991049683148,433.1745681411931,-61.67133560298939,-1.440543314398342,0.0004241582001320557
3,a,6,302,5,1,p,93.24415,64,7894.554999889806,-29.244150000000005,1,39,5,0,1,38.0,0.8606991049683148,433.1745681411931,-61.67133560298939,-17.004907116289814,0.017789610616362188
3,a,2,550,3,2,p,50.0,51,7200.195000041276,1.0,1,40,5,0,1,38.0,0.8606991049683148,433.1745681411931,-61.67133560298939,6.966519622751335,0.0005624752265853445
3,a,3,358,5,2,p,80.9736,50,15264.680000022054,-30.973600000000005,1,41,5,0,1,38.0,0.8606991049683148,433.1745681411931,-61.67133560298939,-20.514244812426085,0.016682543180244095
3,a,7,599,3,2,p,43.84378,48,7174.099999945611,4.156219999999998,1,42,5,0,1,38.0,0.8606991049683148,433.1745681411931,-61.67133560298939,9.22975614509501,0.0011044485315004466
3,a,2,302,5,2,p,93.24415,78,4782.070000190288,-15.244150000000005,1,43,5,0,1,38.0,0.8606991049683148,433.1745681411931,-61.67133560298939,-3.0049071162898144,0.0006679246592849822
3,a,5,652,2,0,p,37.72798,38,7031.994999852032,0.2720199999999977,1,44,5,0,1,38.0,0.8606991049683148,433.1745681411931,-61.67133560298939,4.458434759711864,0.00020614919917893372
3,a,7,302,5,2,p,93.24415,70,5675.300000002608,-23.244150000000005,1,45,5,0,1,38.0,0.8606991049683148,433.1745681411931,-61.67133560298939,-11.004907116289814,0.007619881083883653
3,a,5,425,4,0,p,68.59844,41,5128.654999891296,-27.598439999999997,1,46,5,0,1,38.0,0.8606991049683148,433.1745681411931,-61.67133560298939,-18.934145905238246,0.009115787662307086
3,a,3,504,3,2,p,56.30039,52,5798.155000200495,-4.30039,1,47,5,0,1,38.0,0.8606991049683148,433.1745681411931,-61.67133560298939,2.5800212022335316,4.657254781292085e-05
3,a,4,843,1,2,p,19.19495,2,5062.540000071749,-17.19495,1,48,5,0,1,38.0,0.8606991049683148,433.1745681411931,-61.67133560298939,-15.696817928010173,0.01106449497046665
3,a,2,652,2,1,p,37.72798,17,4460.870000068098,-20.727980000000002,1,49,5,0,1,38.0,0.8606991049683148,433.1745681411931,-61.67133560298939,-16.541565240288136,0.00605022917670277
3,a,4,425,4,1,p,68.59844,72,3102.6099999435246,3.4015600000000035,1,50,5,0,1,38.0,0.8606991049683148,433.1745681411931,-61.67133560298939,12.065854094761754,0.0030322095100891824
3,a,3,843,1,0,p,19.19495,0,2588.35000009276,-19.19495,1,51,5,0,1,38.0,0.8606991049683148,433.1745681411931,-61.67133560298939,-17.696817928010173,0.013794136879606853
3,a,6,390,4,2,p,74.79787,57,5422.139999922365,-17.797870000000003,1,52,5,0,1,38.0,0.8606991049683148,433.1745681411931,-61.67133560298939,-8.234330336015105,0.0023364454017477643
3,a,2,1000,1,0,p,6.87518,0,3987.7949999645352,-6.87518,1,53,5,0,1,38.0,0.8606991049683148,433.1745681411931,-61.67133560298939,-7.164074067764164,0.004581313415164045
3,a,7,710,2,0,p,31.58063,24,10685.65999995917,-7.580629999999999,1,54,5,0,1,38.0,0.8606991049683148,433.1745681411931,-61.67133560298939,-4.285908851592271,0.0007288488463301303
3,a,3,390,4,2,p,74.79787,52,4309.79000008665,-22.797870000000003,1,55,5,0,1,38.0,0.8606991049683148,433.1745681411931,-61.67133560298939,-13.234330336015105,0.005713569695851501
3,a,4,710,2,2,p,31.58063,41,8795.395000139251,9.41937,1,56,5,0,1,38.0,0.8606991049683148,433.1745681411931,-61.67133560298939,12.714091148407729,0.0030798127476285428
3,a,7,390,4,0,p,74.79787,64,2923.814999870956,-10.797870000000003,1,57,5,0,1,38.0,0.8606991049683148,433.1745681411931,-61.67133560298939,-1.2343303360151054,0.0001037317301244779
3,a,3,652,2,2,p,37.72798,23,2994.265000103041,-14.727980000000002,1,58,5,0,1,38.0,0.8606991049683148,433.1745681411931,-61.67133560298939,-10.541565240288136,0.0026478419924267607
3,a,7,1000,1,2,p,6.87518,0,3930.7550000958154,-6.87518,1,59,5,0,1,38.0,0.8606991049683148,433.1745681411931,-61.67133560298939,-7.164074067764164,0.004581313415164045
3,a,4,302,5,0,p,93.24415,100,3304.8199999611825,6.755849999999995,1,60,5,0,1,38.0,0.8606991049683148,433.1745681411931,-61.67133560298939,18.995092883710186,0.020488176173299226
3,a,6,390,4,2,a,74.79787,75,5355.0449998583645,0.2021299999999968,2,61,5,0,1,38.0,0.8606991049683148,433.1745681411931,-61.67133560298939,9.765669663984895,0.0024768667621467514
3,a,3,550,3,1,a,50.0,50,18954.135000007227,0.0,2,62,5,0,1,38.0,0.8606991049683148,433.1745681411931,-61.67133560298939,5.966519622751335,0.0003896407087008822
3,a,5,1000,1,0,a,6.87518,5,7510.040000081062,-1.8751800000000003,2,63,5,0,1,38.0,0.8606991049683148,433.1745681411931,-61.67133560298939,-2.1640740677641643,0.0008566625615216603
3,a,6,358,5,1,a,80.9736,80,5714.704999933019,-0.9736000000000047,2,64,5,0,1,38.0,0.8606991049683148,433.1745681411931,-61.67133560298939,9.485755187573915,0.003009394622899155
3,a,7,918,1,2,a,13.04687,0,3956.2350001651794,-13.04687,2,65,5,0,1,38.0,0.8606991049683148,433.1745681411931,-61.67133560298939,-12.440543314398342,0.009266314084313306
3,a,3,329,5,0,a,87.0672,78,5409.38499988988,-9.0672,2,66,5,0,1,38.0,0.8606991049683148,433.1745681411931,-61.67133560298939,2.276054580565969,0.00015734599896071803
3,a,2,390,4,2,a,74.79787,60,3658.15500007011,-14.797870000000003,2,67,5,0,1,38.0,0.8606991049683148,433.1745681411931,-61.67133560298939,-5.2343303360151054,0.0010231023510346498
3,a,5,302,5,2,a,93.24415,65,7751.550000160932,-28.244150000000005,2,68,5,0,1,38.0,0.8606991049683148,433.1745681411931,-61.67133560298939,-16.004907116289814,0.01579966984820924
3,a,4,774,2,0,a,25.3549,24,12779.74999998696,-1.3549000000000007,2,69,5,0,1,38.0,0.8606991049683148,433.1745681411931,-61.67133560298939,1.036753162363869,3.302218838256448e-06
3,a,2,302,5,2,a,93.24415,82,11664.030000101777,-11.244150000000005,2,70,5,0,1,38.0,0.8606991049683148,433.1745681411931,-61.67133560298939,0.9950928837101856,2.3810569288235212e-05
3,a,4,599,3,0,a,43.84378,43,7079.795000143349,-0.8437800000000024,2,71,5,0,1,38.0,0.8606991049683148,433.1745681411931,-61.67133560298939,4.22975614509501,0.00016400239302965196
3,a,6,710,2,0,a,31.58063,44,3391.3049998227507,12.41937,2,72,5,0,1,38.0,0.8606991049683148,433.1745681411931,-61.67133560298939,15.714091148407729,0.004907520184235694
3,a,4,358,5,2,a,80.9736,58,4080.03000007011,-22.973600000000005,2,73,5,0,1,38.0,0.8606991049683148,433.1745681411931,-61.67133560298939,-12.514244812426085,0.0064142833612051055
3,a,5,504,3,0,a,56.30039,49,4978.9399998262525,-7.30039,2,74,5,0,1,38.0,0.8606991049683148,433.1745681411931,-61.67133560298939,-0.4199787977664684,2.9511838992562784e-05
3,a,7,390,4,2,a,74.79787,63,9979.185000061989,-11.797870000000003,2,75,5,0,1,38.0,0.8606991049683148,433.1745681411931,-61.67133560298939,-2.2343303360151054,0.0002444579446333801
3,a,5,652,2,2,a,37.72798,32,7225.315000163391,-5.727980000000002,2,76,5,0,1,38.0,0.8606991049683148,433.1745681411931,-61.67133560298939,-1.5415652402881364,0.00014323628777368805
3,a,7,302,5,0,a,93.24415,71,42063.18500009365,-22.244150000000005,2,77,5,0,1,38.0,0.8606991049683148,433.1745681411931,-61.67133560298939,-10.004907116289814,0.006337906346306359
3,a,2,652,2,1,a,37.72798,35,13738.934999797491,-2.7279800000000023,2,78,5,0,1,38.0,0.8606991049683148,433.1745681411931,-61.67133560298939,1.4584347597118636,1.4277386922481553e-06
3,a,7,504,3,1,a,56.30039,49,10535.175000084564,-7.30039,2,79,5,0,1,38.0,0.8606991049683148,433.1745681411931,-61.67133560298939,-0.4199787977664684,2.9511838992562784e-05
3,a,4,918,1,0,a,13.04687,13,6544.070000061765,-0.04687000000000019,2,80,5,0,1,38.0,0.8606991049683148,433.1745681411931,-61.67133560298939,0.5594566856016581,4.675193590920591e-05
3,a,2,599,3,0,a,43.84378,47,10428.56499995105,3.1562199999999976,2,81,5,0,1,38.0,0.8606991049683148,433.1745681411931,-61.67133560298939,8.22975614509501,0.0008495979687124476
3,a,4,425,4,1,a,68.59844,55,15131.8400001619,-13.598439999999997,2,82,5,0,1,38.0,0.8606991049683148,433.1745681411931,-61.67133560298939,-4.934145905238246,0.0007556925660603525
3,a,2,1000,1,2,a,6.87518,0,5050.104999914765,-6.87518,2,83,5,0,1,38.0,0.8606991049683148,433.1745681411931,-61.67133560298939,-7.164074067764164,0.004581313415164045
3,a,3,425,4,2,a,68.59844,51,12100.115000037476,-17.598439999999997,2,84,5,0,1,38.0,0.8606991049683148,433.1745681411931,-61.67133560298939,-8.934145905238246,0.002200984828026223
3,a,6,504,3,0,a,56.30039,38,9555.709999985993,-18.30039,2,85,5,0,1,38.0,0.8606991049683148,433.1745681411931,-61.67133560298939,-11.419978797766468,0.002537580534148077
3,a,3,1000,1,0,a,6.87518,0,4947.760000126436,-6.87518,2,86,5,0,1,38.0,0.8606991049683148,433.1745681411931,-61.67133560298939,-7.164074067764164,0.004581313415164045
3,a,7,710,2,2,a,31.58063,36,5509.700000053272,4.419370000000001,2,87,5,0,1,38.0,0.8606991049683148,433.1745681411931,-61.67133560298939,7.714091148407729,0.0009755213226333428
3,a,6,918,1,1,a,13.04687,0,7697.270000120625,-13.04687,2,88,5,0,1,38.0,0.8606991049683148,433.1745681411931,-61.67133560298939,-12.440543314398342,0.009266314084313306
3,a,5,425,4,0,a,68.59844,95,10330.065000103788,26.401560000000003,2,89,5,0,1,38.0,0.8606991049683148,433.1745681411931,-61.67133560298939,35.065854094761754,0.027808248772719434
3,a,3,652,2,2,a,37.72798,48,11129.970000125468,10.272019999999998,2,90,5,0,1,38.0,0.8606991049683148,433.1745681411931,-61.67133560298939,14.458434759711864,0.0033912708032376813
3,a,3,425,4,1,p,68.59844,56,17742.130000144243,-12.598439999999997,3,91,5,0,1,38.0,0.8606991049683148,433.1745681411931,-61.67133560298939,-3.934145905238246,0.0005122827926891061
3,a,4,918,1,0,p,13.04687,27,8377.504999982193,13.95313,3,92,5,0,1,38.0,0.8606991049683148,433.1745681411931,-61.67133560298939,14.559456685601658,0.008004057740433515
3,a,5,550,3,2,p,50.0,37,6530.225000111386,-13.0,3,93,5,0,1,38.0,0.8606991049683148,433.1745681411931,-61.67133560298939,-7.033480377248665,0.0010217496137571386
3,a,3,1000,1,2,p,6.87518,0,4128.030000021681,-6.87518,3,94,5,0,1,38.0,0.8606991049683148,433.1745681411931,-61.67133560298939,-7.164074067764164,0.004581313415164045
3,a,5,390,4,2,p,74.79787,75,25214.09000013955,0.2021299999999968,3,95,5,0,1,38.0,0.8606991049683148,433.1745681411931,-61.67133560298939,9.765669663984895,0.0024768667621467514
3,a,3,550,3,0,p,50.0,50,8286.929999943823,0.0,3,96,5,0,1,38.0,0.8606991049683148,433.1745681411931,-61.67133560298939,5.966519622751335,0.0003896407087008822
3,a,6,918,1,2,p,13.04687,16,3327.4899998214096,2.95313,3,97,5,0,1,38.0,0.8606991049683148,433.1745681411931,-61.67133560298939,3.559456685601658,0.00019040702533950217
3,a,5,302,5,2,p,93.24415,88,8392.559999832883,-5.244150000000005,3,98,5,0,1,38.0,0.8606991049683148,433.1745681411931,-61.67133560298939,6.995092883710186,0.0025974695871713504
3,a,6,652,2,1,p,37.72798,59,6225.865000160411,21.272019999999998,3,99,5,0,1,38.0,0.8606991049683148,433.1745681411931,-61.67133560298939,25.458434759711864,0.011342039690493248
3,a,5,1000,1,0,p,6.87518,0,3810.710000107065,-6.87518,3,100,5,0,1,38.0,0.8606991049683148,433.1745681411931,-61.67133560298939,-7.164074067764164,0.004581313415164045
3,a,4,329,5,1,p,87.0672,75,3905.269999988377,-12.0672,3,101,5,0,1,38.0,0.8606991049683148,433.1745681411931,-61.67133560298939,-0.7239454194340311,6.534974682773607e-05
3,a,5,774,2,2,p,25.3549,27,9159.539999905974,1.6450999999999993,3,102,5,0,1,38.0,0.8606991049683148,433.1745681411931,-61.67133560298939,4.036753162363869,0.00021108233451142076
3,a,4,599,3,1,p,43.84378,50,9538.315000012515,6.156219999999998,3,103,5,0,1,38.0,0.8606991049683148,433.1745681411931,-61.67133560298939,11.22975614509501,0.0017142916597172055
3,a,3,710,2,1,p,31.58063,36,8206.135000102222,4.419370000000001,3,104,5,0,1,38.0,0.8606991049683148,433.1745681411931,-61.67133560298939,7.714091148407729,0.0009755213226333428
3,a,6,504,3,1,p,56.30039,50,6691.339999902993,-6.30039,3,105,5,0,1,38.0,0.8606991049683148,433.1745681411931,-61.67133560298939,0.5800212022335316,1.814006510645424e-06
3,a,4,774,2,1,p,25.3549,32,5302.069999976084,6.645099999999999,3,106,5,0,1,38.0,0.8606991049683148,433.1745681411931,-61.67133560298939,9.036753162363869,0.0017448829090473612
3,a,6,358,5,0,p,80.9736,75,3118.6499998439103,-5.973600000000005,3,107,5,0,1,38.0,0.8606991049683148,433.1745681411931,-61.67133560298939,4.485755187573915,0.0005850660180529973
3,a,2,599,3,0,p,43.84378,46,10132.985000032932,2.1562199999999976,3,108,5,0,1,38.0,0.8606991049683148,433.1745681411931,-61.67133560298939,7.22975614509501,0.0006281280734713684
3,a,7,843,1,1,p,19.19495,53,18195.48500003293,33.80505,3,109,5,0,1,38.0,0.8606991049683148,433.1745681411931,-61.67133560298939,35.30318207198982,0.04303794027831645
3,a,2,358,5,0,p,80.9736,49,11823.469999944791,-31.973600000000005,3,110,5,0,1,38.0,0.8606991049683148,433.1745681411931,-61.67133560298939,-21.514244812426085,0.018304705099861027
3,a,6,463,4,1,p,62.42097,71,17832.600000081584,8.579030000000003,3,111,5,0,1,38.0,0.8606991049683148,433.1745681411931,-61.67133560298939,16.347256850906433,0.004643963094509068
3,a,7,774,2,1,p,25.3549,5,8479.579999810085,-20.3549,3,112,5,0,1,38.0,0.8606991049683148,433.1745681411931,-61.67133560298939,-17.96324683763613,0.011096740475501184
3,a,2,463,4,0,p,62.42097,50,13837.27000001818,-12.420969999999997,3,113,5,0,1,38.0,0.8606991049683148,433.1745681411931,-61.67133560298939,-4.652743149093567,0.0005765065148631791
3,a,3,302,5,0,p,93.24415,63,11283.215000061318,-30.244150000000005,3,114,5,0,1,38.0,0.8606991049683148,433.1745681411931,-61.67133560298939,-18.004907116289814,0.0198975457229444
3,a,2,843,1,2,p,19.19495,34,12740.020000142977,14.805050000000001,3,115,5,0,1,38.0,0.8606991049683148,433.1745681411931,-61.67133560298939,16.303182071989827,0.008277495464595741
3,a,7,463,4,1,p,62.42097,54,6015.9350000321865,-8.420969999999997,3,116,5,0,1,38.0,0.8606991049683148,433.1745681411931,-61.67133560298939,-0.6527431490935669,4.1690287012464816e-05
3,a,2,710,2,0,p,31.58063,43,6056.540000019595,11.41937,3,117,5,0,1,38.0,0.8606991049683148,433.1745681411931,-61.67133560298939,14.714091148407729,0.004251189990232474
3,a,7,550,3,0,p,50.0,49,5284.530000062659,-1.0,3,118,5,0,1,38.0,0.8606991049683148,433.1745681411931,-61.67133560298939,4.966519622751335,0.00024844308793240067
3,a,4,390,4,2,p,74.79787,62,7859.6000000834465,-12.797870000000003,3,119,5,0,1,38.0,0.8606991049683148,433.1745681411931,-61.67133560298939,-3.2343303360151054,0.00044459511962137595
3,a,7,329,5,1,p,87.0672,67,6927.435000194237,-20.0672,3,120,5,0,1,38.0,0.8606991049683148,433.1745681411931,-61.67133560298939,-8.723945419434031,0.0039804833697091625
3,a,5,918,1,2,a,13.04687,27,2748.520000139252,13.95313,4,121,5,0,1,38.0,0.8606991049683148,433.1745681411931,-61.67133560298939,14.559456685601658,0.008004057740433515
3,a,2,504,3,1,a,56.30039,50,4963.620000053197,-6.30039,4,122,5,0,1,38.0,0.8606991049683148,433.1745681411931,-61.67133560298939,0.5800212022335316,1.814006510645424e-06
3,a,7,329,5,1,a,87.0672,69,9273.730000015348,-18.0672,4,123,5,0,1,38.0,0.8606991049683148,433.1745681411931,-61.67133560298939,-6.723945419434031,0.0024343649237293444
3,a,4,710,2,1,a,31.58063,38,10739.615000085903,6.419370000000001,4,124,5,0,1,38.0,0.8606991049683148,433.1745681411931,-61.67133560298939,9.714091148407729,0.001675954747228915
3,a,5,329,5,1,a,87.0672,83,18752.61500012129,-4.0672,4,125,5,0,1,38.0,0.8606991049683148,433.1745681411931,-61.67133560298939,7.276054580565969,0.0022017898867138903
3,a,6,652,2,2,a,37.72798,26,4557.584999827668,-11.727980000000002,4,126,5,0,1,38.0,0.8606991049683148,433.1745681411931,-61.67133560298939,-7.541565240288136,0.0014664434146409442
3,a,4,504,3,2,a,56.30039,50,3389.075000071898,-6.30039,4,127,5,0,1,38.0,0.8606991049683148,433.1745681411931,-61.67133560298939,0.5800212022335316,1.814006510645424e-06
3,a,6,302,5,2,a,93.24415,76,10999.354999978095,-17.244150000000005,4,128,5,0,1,38.0,0.8606991049683148,433.1745681411931,-61.67133560298939,-5.004907116289814,0.0016979477348590029
3,a,7,425,4,0,a,68.59844,52,3287.569999927655,-16.598439999999997,4,129,5,0,1,38.0,0.8606991049683148,433.1745681411931,-61.67133560298939,-7.934145905238246,0.0017689137872626227
3,a,6,1000,1,0,a,6.87518,0,4219.150000018999,-6.87518,4,130,5,0,1,38.0,0.8606991049683148,433.1745681411931,-61.67133560298939,-7.164074067764164,0.004581313415164045
3,a,7,774,2,0,a,25.3549,2,8491.069999989122,-23.3549,4,131,5,0,1,38.0,0.8606991049683148,433.1745681411931,-61.67133560298939,-20.96324683763613,0.01480771161959422
3,a,6,599,3,2,a,43.84378,50,6106.830000178888,6.156219999999998,4,132,5,0,1,38.0,0.8606991049683148,433.1745681411931,-61.67133560298939,11.22975614509501,0.0017142916597172055
3,a,7,843,1,1,a,19.19495,33,5854.9599999096245,13.805050000000001,4,133,5,0,1,38.0,0.8606991049683148,433.1745681411931,-61.67133560298939,15.303182071989827,0.007199602616202422
3,a,5,463,4,2,a,62.42097,50,4148.829999845475,-12.420969999999997,4,134,5,0,1,38.0,0.8606991049683148,433.1745681411931,-61.67133560298939,-4.652743149093567,0.0005765065148631791
3,a,3,504,3,0,a,56.30039,59,7733.160000061616,2.69961,4,135,5,0,1,38.0,0.8606991049683148,433.1745681411931,-61.67133560298939,9.580021202233532,0.0012548466081650415
3,a,2,463,4,1,a,62.42097,41,12792.630000039935,-21.420969999999997,4,136,5,0,1,38.0,0.8606991049683148,433.1745681411931,-61.67133560298939,-13.652743149093567,0.004033073525498912
3,a,3,774,2,1,a,25.3549,37,17349.55000015907,11.6451,4,137,5,0,1,38.0,0.8606991049683148,433.1745681411931,-61.67133560298939,14.036753162363869,0.004763058960767469
3,a,2,918,1,1,a,13.04687,1,2316.695000045001,-12.04687,4,138,5,0,1,38.0,0.8606991049683148,433.1745681411931,-61.67133560298939,-11.440543314398342,0.007989305407362873
3,a,3,302,5,2,a,93.24415,100,4954.799999948591,6.755849999999995,4,139,5,0,1,38.0,0.8606991049683148,433.1745681411931,-61.67133560298939,18.995092883710186,0.020488176173299226
3,a,2,774,2,0,a,25.3549,13,7854.25000009127,-12.3549,4,140,5,0,1,38.0,0.8606991049683148,433.1745681411931,-61.67133560298939,-9.963246837636131,0.003813318264430555
3,a,3,918,1,2,a,13.04687,31,12839.075000025332,17.95313,4,141,5,0,1,38.0,0.8606991049683148,433.1745681411931,-61.67133560298939,18.55945668560166,0.013684443216253261
3,a,7,550,3,2,a,50.0,50,5268.9450001344085,0.0,4,142,5,0,1,38.0,0.8606991049683148,433.1745681411931,-61.67133560298939,5.966519622751335,0.0003896407087008822
3,a,4,843,1,2,a,19.19495,35,3346.2400001008064,15.805050000000001,4,143,5,0,1,38.0,0.8606991049683148,433.1745681411931,-61.67133560298939,17.303182071989827,0.009430548737695625
3,a,6,425,4,0,a,68.59844,75,5697.189999977127,6.4015600000000035,4,144,5,0,1,38.0,0.8606991049683148,433.1745681411931,-61.67133560298939,15.065854094761754,0.004848907299772215
3,a,4,329,5,1,a,87.0672,71,14298.73999999836,-16.0672,4,145,5,0,1,38.0,0.8606991049683148,433.1745681411931,-61.67133560298939,-4.723945419434031,0.0012664698379225012
3,a,3,390,4,0,a,74.79787,49,9977.944999933245,-25.797870000000003,4,146,5,0,1,38.0,0.8606991049683148,433.1745681411931,-61.67133560298939,-16.234330336015105,0.008452775798062867
3,a,5,550,3,1,a,50.0,49,9811.680000042545,-1.0,4,147,5,0,1,38.0,0.8606991049683148,433.1745681411931,-61.67133560298939,4.966519622751335,0.00024844308793240067
3,a,4,463,4,2,a,62.42097,52,17005.265000043437,-10.420969999999997,4,148,5,0,1,38.0,0.8606991049683148,433.1745681411931,-61.67133560298939,-2.652743149093567,0.00023206487963964666
3,a,2,358,5,0,a,80.9736,91,7728.200000012293,10.026399999999995,4,149,5,0,1,38.0,0.8606991049683148,433.1745681411931,-61.67133560298939,20.485755187573915,0.014965004423974375
3,a,5,774,2,0,a,25.3549,25,12394.314999924973,-0.35490000000000066,4,150,5,0,1,38.0,0.8606991049683148,433.1745681411931,-61.67133560298939,2.036753162363869,1.318723830861121e-05
3,a,5,463,4,1,p,62.42097,50,4703.510000137612,-12.420969999999997,5,151,5,0,1,38.0,0.8606991049683148,433.1745681411931,-61.67133560298939,-4.652743149093567,0.0005765065148631791
3,a,3,774,2,0,p,25.3549,37,11455.085000023246,11.6451,5,152,5,0,1,38.0,0.8606991049683148,433.1745681411931,-61.67133560298939,14.036753162363869,0.004763058960767469
3,a,6,425,4,0,p,68.59844,54,6058.405000017956,-14.598439999999997,5,153,5,0,1,38.0,0.8606991049683148,433.1745681411931,-61.67133560298939,-5.934145905238246,0.001046267656279688
3,a,4,358,5,2,p,80.9736,61,5405.014999909326,-19.973600000000005,5,154,5,0,1,38.0,0.8606991049683148,433.1745681411931,-61.67133560298939,-9.514244812426085,0.0038053272172680506
3,a,5,710,2,1,p,31.58063,37,7607.944999821484,5.419370000000001,5,155,5,0,1,38.0,0.8606991049683148,433.1745681411931,-61.67133560298939,8.714091148407729,0.0013021908440307107
3,a,6,843,1,1,p,19.19495,0,3144.4349999073893,-19.19495,5,156,5,0,1,38.0,0.8606991049683148,433.1745681411931,-61.67133560298939,-17.696817928010173,0.013794136879606853
3,a,4,504,3,2,p,56.30039,50,3639.940000139177,-6.30039,5,157,5,0,1,38.0,0.8606991049683148,433.1745681411931,-61.67133560298939,0.5800212022335316,1.814006510645424e-06
3,a,7,918,1,0,p,13.04687,12,5875.904999906197,-1.0468700000000002,5,158,5,0,1,38.0,0.8606991049683148,433.1745681411931,-61.67133560298939,-0.44054331439834193,0.00018813743563632606
3,a,3,463,4,0,p,62.42097,75,6012.044999981299,12.579030000000003,5,159,5,0,1,38.0,0.8606991049683148,433.1745681411931,-61.67133560298939,20.347256850906433,0.00734455476118171
3,a,7,358,5,0,p,80.9736,51,7259.444999974221,-29.973600000000005,5,160,5,0,1,38.0,0.8606991049683148,433.1745681411931,-61.67133560298939,-19.514244812426085,0.015135632247790949
3,a,3,918,1,1,p,13.04687,0,3265.7149999868125,-13.04687,5,161,5,0,1,38.0,0.8606991049683148,433.1745681411931,-61.67133560298939,-12.440543314398342,0.009266314084313306
3,a,4,652,2,0,p,37.72798,49,8128.314999863505,11.272019999999998,5,162,5,0,1,38.0,0.8606991049683148,433.1745681411931,-61.67133560298939,15.458434759711864,0.003921551302824078
3,a,3,599,3,1,p,43.84378,48,6969.6299999486655,4.156219999999998,5,163,5,0,1,38.0,0.8606991049683148,433.1745681411931,-61.67133560298939,9.22975614509501,0.0011044485315004466
3,a,6,774,2,2,p,25.3549,42,5667.64000011608,16.6451,5,164,5,0,1,38.0,0.8606991049683148,433.1745681411931,-61.67133560298939,19.03675316236387,0.009265610489671743
3,a,3,329,5,1,p,87.0672,79,5463.749999878928,-8.0672,5,165,5,0,1,38.0,0.8606991049683148,433.1745681411931,-61.67133560298939,3.276054580565969,0.00037712309642486564
3,a,2,774,2,2,p,25.3549,24,3382.340000011027,-1.3549000000000007,5,166,5,0,1,38.0,0.8606991049683148,433.1745681411931,-61.67133560298939,1.036753162363869,3.302218838256448e-06
3,a,5,329,5,1,p,87.0672,87,9468.104999978095,-0.0671999999999997,5,167,5,0,1,38.0,0.8606991049683148,433.1745681411931,-61.67133560298939,11.276054580565969,0.005539350117694809
3,a,7,504,3,1,p,56.30039,48,7006.474999943748,-8.30039,5,168,5,0,1,38.0,0.8606991049683148,433.1745681411931,-61.67133560298939,-1.4199787977664684,9.059440689651687e-05
3,a,4,463,4,0,p,62.42097,51,6781.634999904782,-11.420969999999997,5,169,5,0,1,38.0,0.8606991049683148,433.1745681411931,-61.67133560298939,-3.652743149093567,0.0003850273169268691
3,a,6,599,3,2,p,43.84378,52,7316.409999970347,8.156219999999998,5,170,5,0,1,38.0,0.8606991049683148,433.1745681411931,-61.67133560298939,13.22975614509501,0.002457657458121645
3,a,5,843,1,2,p,19.19495,0,6334.060000022873,-19.19495,5,171,5,0,1,38.0,0.8606991049683148,433.1745681411931,-61.67133560298939,-17.696817928010173,0.013794136879606853
3,a,7,425,4,2,p,68.59844,57,4828.340000007302,-11.598439999999997,5,172,5,0,1,38.0,0.8606991049683148,433.1745681411931,-61.67133560298939,-2.934145905238246,0.0003160383361659478
3,a,2,504,3,1,p,56.30039,51,6365.460000000894,-5.30039,5,173,5,0,1,38.0,0.8606991049683148,433.1745681411931,-61.67133560298939,1.5800212022335316,7.500909450764781e-06
3,a,7,652,2,2,p,37.72798,50,6816.83999998495,12.272019999999998,5,174,5,0,1,38.0,0.8606991049683148,433.1745681411931,-61.67133560298939,16.458434759711864,0.00449033513680693
3,a,2,329,5,1,p,87.0672,97,12189.40500007011,9.9328,5,175,5,0,1,38.0,0.8606991049683148,433.1745681411931,-61.67133560298939,21.27605458056597,0.02050215949817415
3,a,4,1000,1,1,p,6.87518,0,5169.170000124723,-6.87518,5,176,5,0,1,38.0,0.8606991049683148,433.1745681411931,-61.67133560298939,-7.164074067764164,0.004581313415164045
3,a,2,425,4,2,p,68.59844,62,7689.40500007011,-6.5984399999999965,5,177,5,0,1,38.0,0.8606991049683148,433.1745681411931,-61.67133560298939,2.065854094761754,4.229580627148277e-05
3,a,6,329,5,2,p,87.0672,56,7917.935000034049,-31.0672,5,178,5,0,1,38.0,0.8606991049683148,433.1745681411931,-61.67133560298939,-19.72394541943403,0.01924487738569006
3,a,2,918,1,1,p,13.04687,5,3692.365000024438,-8.04687,5,179,5,0,1,38.0,0.8606991049683148,433.1745681411931,-61.67133560298939,-7.440543314398342,0.0038276233472472315
3,a,5,504,3,0,p,56.30039,20,8516.489999834448,-36.30039,5,180,5,0,1,38.0,0.8606991049683148,433.1745681411931,-61.67133560298939,-29.41997879776647,0.015355108889554136
4,p,6,774,2,2,p,25.3549,23,4323.899999959394,-2.3549000000000007,0,1,6,0,0,5.0,0.9283184815699668,365.8311013601818,-49.97118830303903,-10.444150753831401,0.007770413662704624
4,p,7,302,5,1,p,93.24415,100,3140.98499994725,6.755849999999995,0,2,6,0,0,5.0,0.9283184815699668,365.8311013601818,-49.97118830303903,19.52572241581936,0.05810909992541822
4,p,6,550,3,2,p,50.0,42,2760.594999883324,-8.0,0,3,6,0,0,5.0,0.9283184815699668,365.8311013601818,-49.97118830303903,-8.516986902136729,0.0032056553640128042
4,p,4,774,2,2,p,25.3549,10,3558.104999829084,-15.3549,0,4,6,0,0,5.0,0.9283184815699668,365.8311013601818,-49.97118830303903,-23.4441507538314,0.04384321889523449
4,p,6,358,5,1,p,80.9736,100,4823.570000007749,19.026399999999995,0,5,6,0,0,5.0,0.9283184815699668,365.8311013601818,-49.97118830303903,28.026119825480066,0.0817353961392802
4,p,2,918,1,0,p,13.04687,0,2467.6050001289696,-13.04687,0,6,6,0,0,5.0,0.9283184815699668,365.8311013601818,-49.97118830303903,-24.917790912983733,0.07675152543418236
4,p,4,358,5,1,p,80.9736,74,2787.514999974519,-6.973600000000005,0,7,6,0,0,5.0,0.9283184815699668,365.8311013601818,-49.97118830303903,2.026119825480066,0.00016691278482184078
4,p,3,599,3,0,p,43.84378,48,4119.865000015125,4.156219999999998,0,8,6,0,0,5.0,0.9283184815699668,365.8311013601818,-49.97118830303903,1.747720206439645,0.00022508779303954927
4,p,4,463,4,0,p,62.42097,71,2426.9550000317395,8.579030000000003,0,9,6,0,0,5.0,0.9283184815699668,365.8311013601818,-49.97118830303903,11.878413012218438,0.00769585122289498
4,p,5,504,3,0,p,56.30039,49,9530.534999910742,-7.30039,0,10,6,0,0,5.0,0.9283184815699668,365.8311013601818,-49.97118830303903,-5.881570938365542,0.0016931568178638516
4,p,6,425,4,1,p,68.59844,68,5921.455000061542,-0.5984399999999965,0,11,6,0,0,5.0,0.9283184815699668,365.8311013601818,-49.97118830303903,4.598986126923251,0.0012194005549620486
4,p,4,1000,1,2,p,6.87518,0,1970.0449998490512,-6.87518,0,12,6,0,0,5.0,0.9283184815699668,365.8311013601818,-49.97118830303903,-20.642361562853523,0.06280467818466426
4,p,5,329,5,1,p,87.0672,86,2825.4650000017136,-1.0671999999999997,0,13,6,0,0,5.0,0.9283184815699668,365.8311013601818,-49.97118830303903,9.80479191860347,0.0107586202261511
4,p,7,652,2,0,p,37.72798,37,2466.895000077784,-0.7279800000000023,0,14,6,0,0,5.0,0.9283184815699668,365.8311013601818,-49.97118830303903,-5.015574344060944,0.0011024583035553063
4,p,5,843,1,1,p,19.19495,13,2007.57999997586,-6.194949999999999,0,15,6,0,0,5.0,0.9283184815699668,365.8311013601818,-49.97118830303903,-16.176856910519035,0.02472819911359126
4,p,3,390,4,1,p,74.79787,82,2369.930000044405,7.202129999999997,0,16,6,0,0,5.0,0.9283184815699668,365.8311013601818,-49.97118830303903,14.304340784130517,0.016351330442730325
4,p,7,1000,1,0,p,6.87518,12,2740.449999924749,5.12482,0,17,6,0,0,5.0,0.9283184815699668,365.8311013601818,-49.97118830303903,-8.642361562853523,0.00861135462837634
4,p,2,358,5,1,p,80.9736,94,4258.804999990389,13.026399999999995,0,18,6,0,0,5.0,0.9283184815699668,365.8311013601818,-49.97118830303903,22.026119825480066,0.049684365930268
4,p,5,463,4,1,p,62.42097,77,4273.800000082701,14.579030000000003,0,19,6,0,0,5.0,0.9283184815699668,365.8311013601818,-49.97118830303903,17.878413012218438,0.017634262159775805
4,p,3,302,5,1,p,93.24415,93,2721.9899999909103,-0.24415000000000475,0,20,6,0,0,5.0,0.9283184815699668,365.8311013601818,-49.97118830303903,12.52572241581936,0.02220994181964352
4,p,2,774,2,2,p,25.3549,6,2926.730000181124,-19.3549,0,21,6,0,0,5.0,0.9283184815699668,365.8311013601818,-49.97118830303903,-27.4441507538314,0.060856772297461795
4,p,6,1000,1,2,p,6.87518,0,2537.6850001048297,-6.87518,0,22,6,0,0,5.0,0.9283184815699668,365.8311013601818,-49.97118830303903,-20.642361562853523,0.06280467818466426
4,p,2,504,3,2,p,56.30039,48,7111.920000053942,-8.30039,0,23,6,0,0,5.0,0.9283184815699668,365.8311013601818,-49.97118830303903,-6.881570938365542,0.002317559511577171
4,p,3,843,1,0,p,19.19495,37,2389.519999967888,17.80505,0,24,6,0,0,5.0,0.9283184815699668,365.8311013601818,-49.97118830303903,7.823143089480965,0.008944018374897389
4,p,7,390,4,1,p,74.79787,74,2088.0899999756366,-0.7978700000000032,0,25,6,0,0,5.0,0.9283184815699668,365.8311013601818,-49.97118830303903,6.304340784130517,0.0028346980247859043
4,p,5,710,2,2,p,31.58063,34,1899.534999858588,2.4193700000000007,0,26,6,0,0,5.0,0.9283184815699668,365.8311013601818,-49.97118830303903,-3.7570092831988475,0.0006064797414938442
4,p,2,390,4,1,p,74.79787,69,3532.8850001096725,-5.797870000000003,0,27,6,0,0,5.0,0.9283184815699668,365.8311013601818,-49.97118830303903,1.3043407841305168,4.353173158715883e-05
4,p,4,550,3,2,p,50.0,46,2294.2500000353903,-4.0,0,28,6,0,0,5.0,0.9283184815699668,365.8311013601818,-49.97118830303903,-4.516986902136729,0.0008636769462773612
4,p,3,652,2,2,p,37.72798,39,1993.914999999106,1.2720199999999977,0,29,6,0,0,5.0,0.9283184815699668,365.8311013601818,-49.97118830303903,-3.015574344060944,0.000330629488370726
4,p,7,504,3,0,p,56.30039,53,2712.3249999713157,-3.30039,0,30,6,0,0,5.0,0.9283184815699668,365.8311013601818,-49.97118830303903,-1.8815709383655417,0.00017360126239209357
4,p,5,652,2,2,a,37.72798,45,2427.7599998749797,7.272019999999998,1,31,6,0,0,5.0,0.9283184815699668,365.8311013601818,-49.97118830303903,2.984425655939056,0.0007223722020589307
4,p,2,843,1,1,a,19.19495,26,2054.92000002414,6.805050000000001,1,32,6,0,0,5.0,0.9283184815699668,365.8311013601818,-49.97118830303903,-3.176856910519035,0.00043459323929327486
4,p,7,504,3,0,a,56.30039,53,2234.6100001595914,-3.30039,1,33,6,0,0,5.0,0.9283184815699668,365.8311013601818,-49.97118830303903,-1.8815709383655417,0.00017360126239209357
4,p,4,843,1,2,a,19.19495,31,2573.009999934584,11.805050000000001,1,34,6,0,0,5.0,0.9283184815699668,365.8311013601818,-49.97118830303903,1.8231430894809648,0.0009996099846716188
4,p,6,425,4,0,a,68.59844,64,2087.8800000064075,-4.5984399999999965,1,35,6,0,0,5.0,0.9283184815699668,365.8311013601818,-49.97118830303903,0.5989861269232506,2.7956717803221494e-06
4,p,3,504,3,2,a,56.30039,48,3061.5149999503046,-8.30039,1,36,6,0,0,5.0,0.9283184815699668,365.8311013601818,-49.97118830303903,-6.881570938365542,0.002317559511577171
4,p,7,463,4,2,a,62.42097,60,2232.255000155419,-2.420969999999997,1,37,6,0,0,5.0,0.9283184815699668,365.8311013601818,-49.97118830303903,0.8784130122184379,2.6022518594313366e-05
4,p,3,918,1,1,a,13.04687,17,3112.5649998430163,3.95313,1,38,6,0,0,5.0,0.9283184815699668,365.8311013601818,-49.97118830303903,-7.917790912983733,0.0059112837971730305
4,p,5,329,5,0,a,87.0672,82,2111.6049999836832,-5.0672,1,39,6,0,0,5.0,0.9283184815699668,365.8311013601818,-49.97118830303903,5.80479191860347,0.0032090024314271794
4,p,3,390,4,1,a,74.79787,63,2035.5050000362096,-11.797870000000003,1,40,6,0,0,5.0,0.9283184815699668,365.8311013601818,-49.97118830303903,-4.695659215869483,0.0024378877472731276
4,p,2,358,5,1,a,80.9736,79,2115.199999883771,-1.9736000000000047,1,41,6,0,0,5.0,0.9283184815699668,365.8311013601818,-49.97118830303903,7.026119825480066,0.00427906728975148
4,p,5,550,3,1,a,50.0,46,1782.6249999925494,-4.0,1,42,6,0,0,5.0,0.9283184815699668,365.8311013601818,-49.97118830303903,-4.516986902136729,0.0008636769462773612
4,p,6,1000,1,2,a,6.87518,10,2023.4600000549108,3.1248199999999997,1,43,6,0,0,5.0,0.9283184815699668,365.8311013601818,-49.97118830303903,-10.642361562853523,0.014184632923274149
4,p,4,652,2,0,a,37.72798,39,2003.170000156388,1.2720199999999977,1,44,6,0,0,5.0,0.9283184815699668,365.8311013601818,-49.97118830303903,-3.015574344060944,0.000330629488370726
4,p,6,550,3,0,a,50.0,52,2193.405000027269,2.0,1,45,6,0,0,5.0,0.9283184815699668,365.8311013601818,-49.97118830303903,1.483013097863271,0.00013125845012168763
4,p,7,329,5,1,a,87.0672,95,2022.0749999862164,7.9328,1,46,6,0,0,5.0,0.9283184815699668,365.8311013601818,-49.97118830303903,18.80479191860347,0.04395065669749775
4,p,3,774,2,0,a,25.3549,37,1658.5699999704957,11.6451,1,47,6,0,0,5.0,0.9283184815699668,365.8311013601818,-49.97118830303903,3.5558492461685987,0.0017989309993471916
4,p,5,463,4,2,a,62.42097,60,2105.8999998494983,-2.420969999999997,1,48,6,0,0,5.0,0.9283184815699668,365.8311013601818,-49.97118830303903,0.8784130122184379,2.6022518594313366e-05
4,p,3,329,5,0,a,87.0672,73,1771.7699999921024,-14.0672,1,49,6,0,0,5.0,0.9283184815699668,365.8311013601818,-49.97118830303903,-3.1952080813965296,0.0024277588265161714
4,p,4,463,4,1,a,62.42097,54,2102.2300000768155,-8.420969999999997,1,50,6,0,0,5.0,0.9283184815699668,365.8311013601818,-49.97118830303903,-5.121586987781562,0.0015973475962380431
4,p,2,710,2,1,a,31.58063,36,1687.3999999370426,4.419370000000001,1,51,6,0,0,5.0,0.9283184815699668,365.8311013601818,-49.97118830303903,-1.7570092831988475,6.424615634520482e-05
4,p,4,329,5,2,a,87.0672,86,1985.554999904707,-1.0671999999999997,1,52,6,0,0,5.0,0.9283184815699668,365.8311013601818,-49.97118830303903,9.80479191860347,0.0107586202261511
4,p,7,652,2,2,a,37.72798,44,1571.98500004597,6.272019999999998,1,53,6,0,0,5.0,0.9283184815699668,365.8311013601818,-49.97118830303903,1.9844256559390558,0.0003750787123565273
4,p,4,504,3,0,a,56.30039,53,1576.9050000235438,-3.30039,1,54,6,0,0,5.0,0.9283184815699668,365.8311013601818,-49.97118830303903,-1.8815709383655417,0.00017360126239209357
4,p,6,710,2,1,a,31.58063,41,1346.180000109598,9.41937,1,55,6,0,0,5.0,0.9283184815699668,365.8311013601818,-49.97118830303903,3.2429907168011525,0.0011231364838265715
4,p,7,1000,1,0,a,6.87518,29,1686.2850000616163,22.12482,1,56,6,0,0,5.0,0.9283184815699668,365.8311013601818,-49.97118830303903,8.357638437146477,0.017100407231487046
4,p,2,599,3,2,a,43.84378,47,1920.5749998800457,3.1562199999999976,1,57,6,0,0,5.0,0.9283184815699668,365.8311013601818,-49.97118830303903,0.7477202064396451,6.416492695589714e-05
4,p,6,358,5,0,a,80.9736,68,1868.7150001060215,-12.973600000000005,1,58,6,0,0,5.0,0.9283184815699668,365.8311013601818,-49.97118830303903,-3.973880174519934,0.002507471106566346
4,p,5,843,1,2,a,19.19495,36,1791.4700000546873,16.80505,1,59,6,0,0,5.0,0.9283184815699668,365.8311013601818,-49.97118830303903,6.823143089480965,0.00706946634805887
4,p,2,425,4,2,a,68.59844,57,1345.3699999954551,-11.598439999999997,1,60,6,0,0,5.0,0.9283184815699668,365.8311013601818,-49.97118830303903,-6.401013873076749,0.003193581431566093
4,p,2,425,4,0,p,68.59844,56,2017.5100001506507,-12.598439999999997,2,61,6,0,0,5.0,0.9283184815699668,365.8311013601818,-49.97118830303903,-7.401013873076749,0.00420211906533848
4,p,7,550,3,1,p,50.0,52,1781.7199998535216,2.0,2,62,6,0,0,5.0,0.9283184815699668,365.8311013601818,-49.97118830303903,1.483013097863271,0.00013125845012168763
4,p,4,843,1,0,p,19.19495,33,1828.0450000893325,13.805050000000001,2,63,6,0,0,5.0,0.9283184815699668,365.8311013601818,-49.97118830303903,3.823143089480965,0.0027669717758654505
4,p,7,710,2,2,p,31.58063,40,1956.135000102222,8.41937,2,64,6,0,0,5.0,0.9283184815699668,365.8311013601818,-49.97118830303903,2.2429907168011525,0.0006354184994328163
4,p,6,504,3,1,p,56.30039,58,2933.0700000282377,1.6996099999999998,2,65,6,0,0,5.0,0.9283184815699668,365.8311013601818,-49.97118830303903,3.1184290616344583,0.00047478106166080956
4,p,2,652,2,0,p,37.72798,38,2162.330000195652,0.2720199999999977,2,66,6,0,0,5.0,0.9283184815699668,365.8311013601818,-49.97118830303903,-4.015574344060944,0.0006601432884788091
4,p,6,843,1,0,p,19.19495,35,2282.5400000438094,15.805050000000001,2,67,6,0,0,5.0,0.9283184815699668,365.8311013601818,-49.97118830303903,5.823143089480965,0.005415107905940707
4,p,5,302,5,0,p,93.24415,83,2946.6850000899285,-10.244150000000005,2,68,6,0,0,5.0,0.9283184815699668,365.8311013601818,-49.97118830303903,2.5257224158193594,0.0003083894081058619
4,p,3,710,2,0,p,31.58063,32,2660.8250001445413,0.4193700000000007,2,69,6,0,0,5.0,0.9283184815699668,365.8311013601818,-49.97118830303903,-5.7570092831988475,0.0017005931644374472
4,p,6,302,5,2,p,93.24415,75,1929.0849999524653,-18.244150000000005,2,70,6,0,0,5.0,0.9283184815699668,365.8311013601818,-49.97118830303903,-5.474277584180641,0.007676242303653549
4,p,3,550,3,1,p,50.0,47,1840.444999979809,-3.0,2,71,6,0,0,5.0,0.9283184815699668,365.8311013601818,-49.97118830303903,-3.516986902136729,0.0005098947693807914
4,p,7,425,4,2,p,68.59844,58,3146.074999822304,-10.598439999999997,2,72,6,0,0,5.0,0.9283184815699668,365.8311013601818,-49.97118830303903,-5.401013873076749,0.002323221571958739
4,p,3,358,5,2,p,80.9736,69,1927.784999832511,-11.973600000000005,2,73,6,0,0,5.0,0.9283184815699668,365.8311013601818,-49.97118830303903,-2.973880174519934,0.0015662308008468013
4,p,4,710,2,0,p,31.58063,37,1965.529999928549,5.419370000000001,2,74,6,0,0,5.0,0.9283184815699668,365.8311013601818,-49.97118830303903,-0.7570092831988475,8.43029439963736e-08
4,p,7,358,5,0,p,80.9736,73,2880.210000090301,-7.973600000000005,2,75,6,0,0,5.0,0.9283184815699668,365.8311013601818,-49.97118830303903,1.026119825480066,5.858586350464847e-06
4,p,3,1000,1,2,p,6.87518,28,2220.810000086203,21.12482,2,76,6,0,0,5.0,0.9283184815699668,365.8311013601818,-49.97118830303903,7.357638437146477,0.013833897357756473
4,p,4,302,5,2,p,93.24415,71,1462.5450000166893,-22.244150000000005,2,77,6,0,0,5.0,0.9283184815699668,365.8311013601818,-49.97118830303903,-9.47427758418064,0.019656533693020003
4,p,6,652,2,1,p,37.72798,38,2860.465000150725,0.2720199999999977,2,78,6,0,0,5.0,0.9283184815699668,365.8311013601818,-49.97118830303903,-4.015574344060944,0.0006601432884788091
4,p,5,390,4,0,p,74.79787,60,2121.4050000999123,-14.797870000000003,2,79,6,0,0,5.0,0.9283184815699668,365.8311013601818,-49.97118830303903,-7.695659215869483,0.005984783941830667
4,p,7,843,1,1,p,19.19495,35,1515.625,15.805050000000001,2,80,6,0,0,5.0,0.9283184815699668,365.8311013601818,-49.97118830303903,5.823143089480965,0.005415107905940707
4,p,4,599,3,1,p,43.84378,45,2676.530000055209,1.1562199999999976,2,81,6,0,0,5.0,0.9283184815699668,365.8311013601818,-49.97118830303903,-1.252279793560355,3.5700008276969076e-05
4,p,2,302,5,0,p,93.24415,80,1490.209999959916,-13.244150000000005,2,82,6,0,0,5.0,0.9283184815699668,365.8311013601818,-49.97118830303903,-0.4742775841806406,0.00047872019968855543
4,p,5,550,3,1,p,50.0,47,1457.0999999996277,-3.0,2,83,6,0,0,5.0,0.9283184815699668,365.8311013601818,-49.97118830303903,-3.516986902136729,0.0005098947693807914
4,p,3,425,4,0,p,68.59844,60,1935.4949998669329,-8.598439999999997,2,84,6,0,0,5.0,0.9283184815699668,365.8311013601818,-49.97118830303903,-3.4010138730767494,0.0009970351752391327
4,p,2,843,1,1,p,19.19495,23,2127.910000039265,3.8050500000000014,2,85,6,0,0,5.0,0.9283184815699668,365.8311013601818,-49.97118830303903,-6.176856910519035,0.0027379062087105432
4,p,5,652,2,0,p,37.72798,44,1552.6199999731034,6.272019999999998,2,86,6,0,0,5.0,0.9283184815699668,365.8311013601818,-49.97118830303903,1.9844256559390558,0.0003750787123565273
4,p,6,390,4,0,p,74.79787,61,1361.1899998504668,-13.797870000000003,2,87,6,0,0,5.0,0.9283184815699668,365.8311013601818,-49.97118830303903,-6.695659215869483,0.004628432011295592
4,p,5,1000,1,0,p,6.87518,16,2112.320000072941,9.12482,2,88,6,0,0,5.0,0.9283184815699668,365.8311013601818,-49.97118830303903,-4.642361562853523,0.0016155287959609423
4,p,2,550,3,1,p,50.0,56,1516.0649998579174,6.0,2,89,6,0,0,5.0,0.9283184815699668,365.8311013601818,-49.97118830303903,5.483013097863271,0.0014966788729828993
4,p,4,390,4,2,p,74.79787,64,1504.399999976158,-10.797870000000003,2,90,6,0,0,5.0,0.9283184815699668,365.8311013601818,-49.97118830303903,-3.695659215869483,0.0016036954137857336
4,p,7,550,3,1,a,50.0,48,3330.620000138879,-2.0,3,91,6,0,0,5.0,0.9283184815699668,365.8311013601818,-49.97118830303903,-2.516986902136729,0.0002487975634991378
4,p,2,329,5,0,a,87.0672,73,2242.7749999333173,-14.0672,3,92,6,0,0,5.0,0.9283184815699668,365.8311013601818,-49.97118830303903,-3.1952080813965296,0.0024277588265161714
4,p,7,843,1,1,a,19.19495,33,1749.440000159666,13.805050000000001,3,93,6,0,0,5.0,0.9283184815699668,365.8311013601818,-49.97118830303903,3.823143089480965,0.0027669717758654505
4,p,4,550,3,2,a,50.0,56,2262.0300000999123,6.0,3,94,6,0,0,5.0,0.9283184815699668,365.8311013601818,-49.97118830303903,5.483013097863271,0.0014966788729828993
4,p,2,463,4,1,a,62.42097,54,1737.215000204742,-8.420969999999997,3,95,6,0,0,5.0,0.9283184815699668,365.8311013601818,-49.97118830303903,-5.121586987781562,0.0015973475962380431
4,p,4,710,2,2,a,31.58063,35,2036.284999921918,3.4193700000000007,3,96,6,0,0,5.0,0.9283184815699668,365.8311013601818,-49.97118830303903,-2.7570092831988475,0.00026637796919515413
4,p,6,302,5,2,a,93.24415,83,1769.7000000625849,-10.244150000000005,3,97,6,0,0,5.0,0.9283184815699668,365.8311013601818,-49.97118830303903,2.5257224158193594,0.0003083894081058619
4,p,5,918,1,0,a,13.04687,29,1760.939999949187,15.95313,3,98,6,0,0,5.0,0.9283184815699668,365.8311013601818,-49.97118830303903,4.082209087016267,0.004147561109997745
4,p,4,425,4,0,a,68.59844,72,2062.029999913648,3.4015600000000035,3,99,6,0,0,5.0,0.9283184815699668,365.8311013601818,-49.97118830303903,8.59898612692325,0.004646849824784313
4,p,3,599,3,0,a,43.84378,37,2155.235000187531,-6.843780000000002,3,100,6,0,0,5.0,0.9283184815699668,365.8311013601818,-49.97118830303903,-9.252279793560355,0.0038335845134062733
4,p,5,390,4,0,a,74.79787,72,2318.2550000492483,-2.797870000000003,3,101,6,0,0,5.0,0.9283184815699668,365.8311013601818,-49.97118830303903,4.304340784130517,0.0011960719104587274
4,p,4,302,5,0,a,93.24415,84,1998.755000066012,-9.244150000000005,3,102,6,0,0,5.0,0.9283184815699668,365.8311013601818,-49.97118830303903,3.5257224158193594,0.0009429762227110142
4,p,6,463,4,2,a,62.42097,54,1885.2699999697504,-8.420969999999997,3,103,6,0,0,5.0,0.9283184815699668,365.8311013601818,-49.97118830303903,-5.121586987781562,0.0015973475962380431
4,p,7,302,5,0,a,93.24415,67,1462.5349999405444,-26.244150000000005,3,104,6,0,0,5.0,0.9283184815699668,365.8311013601818,-49.97118830303903,-13.47427758418064,0.037167735043448176
4,p,4,918,1,1,a,13.04687,25,1989.5350001752377,11.95313,3,105,6,0,0,5.0,0.9283184815699668,365.8311013601818,-49.97118830303903,0.08220908701626684,0.00029950051032253235
4,p,3,302,5,1,a,93.24415,84,1508.2849999889731,-9.244150000000005,3,106,6,0,0,5.0,0.9283184815699668,365.8311013601818,-49.97118830303903,3.5257224158193594,0.0009429762227110142
4,p,6,652,2,2,a,37.72798,29,1903.165000025183,-8.727980000000002,3,107,6,0,0,5.0,0.9283184815699668,365.8311013601818,-49.97118830303903,-13.015574344060944,0.008701822163030204
4,p,5,358,5,1,a,80.9736,81,1767.4250002019107,0.026399999999995316,3,108,6,0,0,5.0,0.9283184815699668,365.8311013601818,-49.97118830303903,9.026119825480066,0.0074671413975906245
4,p,6,599,3,2,a,43.84378,40,1684.330000076443,-3.8437800000000024,3,109,6,0,0,5.0,0.9283184815699668,365.8311013601818,-49.97118830303903,-6.252279793560355,0.0016759257902618442
4,p,5,710,2,1,a,31.58063,30,1702.2649999707935,-1.5806299999999993,3,110,6,0,0,5.0,0.9283184815699668,365.8311013601818,-49.97118830303903,-7.7570092831988475,0.0033465864251760137
4,p,6,918,1,0,a,13.04687,32,2116.5599999949336,18.95313,3,111,6,0,0,5.0,0.9283184815699668,365.8311013601818,-49.97118830303903,7.082209087016267,0.009944710666110607
4,p,3,710,2,1,a,31.58063,34,2085.914999945089,2.4193700000000007,3,112,6,0,0,5.0,0.9283184815699668,365.8311013601818,-49.97118830303903,-3.7570092831988475,0.0006064797414938442
4,p,2,1000,1,0,a,6.87518,19,1801.3150000479072,12.12482,3,113,6,0,0,5.0,0.9283184815699668,365.8311013601818,-49.97118830303903,-1.642361562853523,5.488343570822355e-07
4,p,7,425,4,1,a,68.59844,65,5242.835000157356,-3.5984399999999965,3,114,6,0,0,5.0,0.9283184815699668,365.8311013601818,-49.97118830303903,1.5989861269232506,9.968023132820345e-05
4,p,2,652,2,2,a,37.72798,41,2273.0149999260902,3.2720199999999977,3,115,6,0,0,5.0,0.9283184815699668,365.8311013601818,-49.97118830303903,-1.0155743440609442,1.0005533059803282e-05
4,p,5,504,3,0,a,56.30039,56,2715.349999954924,-0.30039000000000016,3,116,6,0,0,5.0,0.9283184815699668,365.8311013601818,-49.97118830303903,1.1184290616344583,6.089257613886789e-05
4,p,7,774,2,0,a,25.3549,37,2468.0900000967085,11.6451,3,117,6,0,0,5.0,0.9283184815699668,365.8311013601818,-49.97118830303903,3.5558492461685987,0.0017989309993471916
4,p,3,463,4,0,a,62.42097,58,2076.30499987863,-4.420969999999997,3,118,6,0,0,5.0,0.9283184815699668,365.8311013601818,-49.97118830303903,-1.121586987781562,9.843534782753506e-05
4,p,2,550,3,1,a,50.0,52,2329.1500001214445,2.0,3,119,6,0,0,5.0,0.9283184815699668,365.8311013601818,-49.97118830303903,1.483013097863271,0.00013125845012168763
4,p,3,1000,1,2,a,6.87518,31,1889.2900000792,24.12482,3,120,6,0,0,5.0,0.9283184815699668,365.8311013601818,-49.97118830303903,10.357638437146477,0.024671109668293254
4,p,7,599,3,2,p,43.84378,47,2424.115000059828,3.1562199999999976,4,121,6,0,0,5.0,0.9283184815699668,365.8311013601818,-49.97118830303903,0.7477202064396451,6.416492695589714e-05
4,p,3,329,5,0,p,87.0672,64,2974.2950000800192,-23.0672,4,122,6,0,0,5.0,0.9283184815699668,365.8311013601818,-49.97118830303903,-12.19520808139653,0.024084756436829835
4,p,5,918,1,2,p,13.04687,28,3784.9200000055134,14.95313,4,123,6,0,0,5.0,0.9283184815699668,365.8311013601818,-49.97118830303903,3.082209087016267,0.0027696739448851647
4,p,3,774,2,1,p,25.3549,32,2722.7900000289083,6.645099999999999,4,124,6,0,0,5.0,0.9283184815699668,365.8311013601818,-49.97118830303903,-1.4441507538314013,1.777555281954049e-05
4,p,5,599,3,2,p,43.84378,46,3616.135000018403,2.1562199999999976,4,125,6,0,0,5.0,0.9283184815699668,365.8311013601818,-49.97118830303903,-0.2522797935603549,1.035665368370395e-06
4,p,3,918,1,1,p,13.04687,35,2039.1100000124425,21.95313,4,126,6,0,0,5.0,0.9283184815699668,365.8311013601818,-49.97118830303903,10.082209087016267,0.01823709231338615
4,p,2,329,5,2,p,87.0672,76,2943.514999933541,-11.0672,4,127,6,0,0,5.0,0.9283184815699668,365.8311013601818,-49.97118830303903,-0.19520808139652956,0.00019503544868376563
4,p,3,504,3,2,p,56.30039,47,3826.234999811277,-9.30039,4,128,6,0,0,5.0,0.9283184815699668,365.8311013601818,-49.97118830303903,-7.881570938365542,0.0030397677272286407
4,p,4,918,1,1,p,13.04687,39,3959.999999962747,25.95313,4,129,6,0,0,5.0,0.9283184815699668,365.8311013601818,-49.97118830303903,14.082209087016267,0.0331750733182288
4,p,3,463,4,2,p,62.42097,57,3039.579999865964,-5.420969999999997,4,130,6,0,0,5.0,0.9283184815699668,365.8311013601818,-49.97118830303903,-2.121586987781562,0.0003039025861871541
4,p,2,1000,1,2,p,6.87518,32,19004.629999864846,25.12482,4,131,6,0,0,5.0,0.9283184815699668,365.8311013601818,-49.97118830303903,11.357638437146477,0.028975302231368884
4,p,4,652,2,1,p,37.72798,43,2772.344999946654,5.272019999999998,4,132,6,0,0,5.0,0.9283184815699668,365.8311013601818,-49.97118830303903,0.9844256559390558,0.00014058643762253817
4,p,7,329,5,2,p,87.0672,64,2506.659999955445,-23.0672,4,133,6,0,0,5.0,0.9283184815699668,365.8311013601818,-49.97118830303903,-12.19520808139653,0.024084756436829835
4,p,6,599,3,0,p,43.84378,47,2292.959999991581,3.1562199999999976,4,134,6,0,0,5.0,0.9283184815699668,365.8311013601818,-49.97118830303903,0.7477202064396451,6.416492695589714e-05
4,p,7,918,1,2,p,13.04687,31,2446.4000000152737,17.95313,4,135,6,0,0,5.0,0.9283184815699668,365.8311013601818,-49.97118830303903,6.082209087016267,0.00773507947061047
4,p,6,463,4,2,p,62.42097,65,2713.340000016615,2.579030000000003,4,136,6,0,0,5.0,0.9283184815699668,365.8311013601818,-49.97118830303903,5.878413012218438,0.0018197000558463534
4,p,2,710,2,1,p,31.58063,41,2053.2100000418723,9.41937,4,137,6,0,0,5.0,0.9283184815699668,365.8311013601818,-49.97118830303903,3.2429907168011525,0.0011231364838265715
4,p,6,918,1,1,p,13.04687,34,1867.375000147149,20.95313,4,138,6,0,0,5.0,0.9283184815699668,365.8311013601818,-49.97118830303903,9.082209087016267,0.01519571708749845
4,p,2,463,4,2,p,62.42097,55,3359.245000174269,-7.420969999999997,4,139,6,0,0,5.0,0.9283184815699668,365.8311013601818,-49.97118830303903,-4.121586987781562,0.0010533587103924078
4,p,6,710,2,0,p,31.58063,39,3042.2850002069026,7.419370000000001,4,140,6,0,0,5.0,0.9283184815699668,365.8311013601818,-49.97118830303903,1.2429907168011525,0.00028567047448780215
4,p,4,329,5,0,p,87.0672,78,2892.1599998138845,-9.0672,4,141,6,0,0,5.0,0.9283184815699668,365.8311013601818,-49.97118830303903,1.8047919186034704,9.162981501924049e-05
4,p,7,774,2,1,p,25.3549,35,2771.180000156164,9.6451,4,142,6,0,0,5.0,0.9283184815699668,365.8311013601818,-49.97118830303903,1.5558492461685987,0.0005646251105630339
4,p,5,358,5,2,p,80.9736,68,3191.8700002133846,-12.973600000000005,4,143,6,0,0,5.0,0.9283184815699668,365.8311013601818,-49.97118830303903,-3.973880174519934,0.002507471106566346
4,p,2,599,3,0,p,43.84378,48,5383.075000019744,4.156219999999998,4,144,6,0,0,5.0,0.9283184815699668,365.8311013601818,-49.97118830303903,1.747720206439645,0.00022508779303954927
4,p,5,774,2,1,p,25.3549,31,4001.24999997206,5.645099999999999,4,145,6,0,0,5.0,0.9283184815699668,365.8311013601818,-49.97118830303903,-2.4441507538314013,0.0001833881736871074
4,p,7,463,4,0,p,62.42097,60,2774.205000139773,-2.420969999999997,4,146,6,0,0,5.0,0.9283184815699668,365.8311013601818,-49.97118830303903,0.8784130122184379,2.6022518594313366e-05
4,p,4,504,3,0,p,56.30039,55,2009.9149998277423,-1.3003900000000002,4,147,6,0,0,5.0,0.9283184815699668,365.8311013601818,-49.97118830303903,0.11842906163445832,6.566162851247068e-07
4,p,5,425,4,2,p,68.59844,69,2389.10000002943,0.40156000000000347,4,148,6,0,0,5.0,0.9283184815699668,365.8311013601818,-49.97118830303903,5.598986126923251,0.0018689962111700647
4,p,6,329,5,0,p,87.0672,67,3165.2150000445545,-20.0672,4,149,6,0,0,5.0,0.9283184815699668,365.8311013601818,-49.97118830303903,-9.19520808139653,0.014372619320589208
4,p,4,425,4,1,p,68.59844,71,2274.785000132397,2.4015600000000035,4,150,6,0,0,5.0,0.9283184815699668,365.8311013601818,-49.97118830303903,7.598986126923251,0.003582720846081197
4,p,4,599,3,1,a,43.84378,48,2755.8550001122057,4.156219999999998,5,151,6,0,0,5.0,0.9283184815699668,365.8311013601818,-49.97118830303903,1.747720206439645,0.00022508779303954927
4,p,5,1000,1,1,a,6.87518,26,1961.55000012368,19.12482,5,152,6,0,0,5.0,0.9283184815699668,365.8311013601818,-49.97118830303903,5.357638437146477,0.00833856029964037
4,p,2,302,5,2,a,93.24415,77,2053.2100000418723,-16.244150000000005,5,153,6,0,0,5.0,0.9283184815699668,365.8311013601818,-49.97118830303903,-3.4742775841806406,0.0037601878443684765
4,p,3,550,3,1,a,50.0,48,2560.344999888912,-2.0,5,154,6,0,0,5.0,0.9283184815699668,365.8311013601818,-49.97118830303903,-2.516986902136729,0.0002487975634991378
4,p,2,774,2,0,a,25.3549,29,2155.70000000298,3.6450999999999993,5,155,6,0,0,5.0,0.9283184815699668,365.8311013601818,-49.97118830303903,-4.444150753831401,0.0010364571255953383
4,p,3,358,5,2,a,80.9736,74,1205.2499998826534,-6.973600000000005,5,156,6,0,0,5.0,0.9283184815699668,365.8311013601818,-49.97118830303903,2.026119825480066,0.00016691278482184078
4,p,2,918,1,2,a,13.04687,31,1206.705000018701,17.95313,5,157,6,0,0,5.0,0.9283184815699668,365.8311013601818,-49.97118830303903,6.082209087016267,0.00773507947061047
4,p,6,390,4,1,a,74.79787,65,2649.3499998468906,-9.797870000000003,5,158,6,0,0,5.0,0.9283184815699668,365.8311013601818,-49.97118830303903,-2.695659215869483,0.0009435562793142332
4,p,4,1000,1,0,a,6.87518,32,4526.240000035614,25.12482,5,159,6,0,0,5.0,0.9283184815699668,365.8311013601818,-49.97118830303903,11.357638437146477,0.028975302231368884
4,p,2,390,4,0,a,74.79787,71,2056.605000048876,-3.797870000000003,5,160,6,0,0,5.0,0.9283184815699668,365.8311013601818,-49.97118830303903,3.304340784130517,0.0006378386518189786
4,p,7,918,1,2,a,13.04687,27,2078.334999969229,13.95313,5,161,6,0,0,5.0,0.9283184815699668,365.8311013601818,-49.97118830303903,2.082209087016267,0.0016690347899017675
4,p,6,504,3,1,a,56.30039,54,1722.8900000918657,-2.30039,5,162,6,0,0,5.0,0.9283184815699668,365.8311013601818,-49.97118830303903,-0.8815709383655417,3.822617836953326e-05
4,p,7,710,2,1,a,31.58063,45,2077.4350001011044,13.41937,5,163,6,0,0,5.0,0.9283184815699668,365.8311013601818,-49.97118830303903,7.2429907168011525,0.004453708015889002
4,p,4,390,4,2,a,74.79787,72,8691.534999990836,-2.797870000000003,5,164,6,0,0,5.0,0.9283184815699668,365.8311013601818,-49.97118830303903,4.304340784130517,0.0011960719104587274
4,p,6,329,5,1,a,87.0672,78,2738.069999963045,-9.0672,5,165,6,0,0,5.0,0.9283184815699668,365.8311013601818,-49.97118830303903,1.8047919186034704,9.162981501924049e-05
4,p,7,390,4,0,a,74.79787,72,3573.6849999520928,-2.797870000000003,5,166,6,0,0,5.0,0.9283184815699668,365.8311013601818,-49.97118830303903,4.304340784130517,0.0011960719104587274
4,p,5,302,5,2,a,93.24415,74,2100.1150000374764,-19.244150000000005,5,167,6,0,0,5.0,0.9283184815699668,365.8311013601818,-49.97118830303903,-6.474277584180641,0.010152792342145623
4,p,7,599,3,2,a,43.84378,40,1506.2799998559058,-3.8437800000000024,5,168,6,0,0,5.0,0.9283184815699668,365.8311013601818,-49.97118830303903,-6.252279793560355,0.0016759257902618442
4,p,3,425,4,2,a,68.59844,70,3388.5999999474734,1.4015600000000035,5,169,6,0,0,5.0,0.9283184815699668,365.8311013601818,-49.97118830303903,6.598986126923251,0.002656769641543114
4,p,4,774,2,1,a,25.3549,37,2305.500000016764,11.6451,5,170,6,0,0,5.0,0.9283184815699668,365.8311013601818,-49.97118830303903,3.5558492461685987,0.0017989309993471916
4,p,7,358,5,2,a,80.9736,65,1496.260000159964,-15.973600000000005,5,171,6,0,0,5.0,0.9283184815699668,365.8311013601818,-49.97118830303903,-6.973880174519934,0.006653945428754082
4,p,5,774,2,0,a,25.3549,32,2159.6349999308586,6.645099999999999,5,172,6,0,0,5.0,0.9283184815699668,365.8311013601818,-49.97118830303903,-1.4441507538314013,1.777555281954049e-05
4,p,4,358,5,1,a,80.9736,63,3157.0000001229346,-17.973600000000005,5,173,6,0,0,5.0,0.9283184815699668,365.8311013601818,-49.97118830303903,-8.973880174519934,0.010520556147736825
4,p,5,599,3,2,a,43.84378,44,1135.424999985844,0.15621999999999758,5,174,6,0,0,5.0,0.9283184815699668,365.8311013601818,-49.97118830303903,-2.252279793560355,0.00016815795568169318
4,p,6,843,1,1,a,19.19495,27,1921.989999944344,7.805050000000001,5,175,6,0,0,5.0,0.9283184815699668,365.8311013601818,-49.97118830303903,-2.176856910519035,0.00010720941892823109
4,p,5,425,4,1,a,68.59844,71,1627.7550000231713,2.4015600000000035,5,176,6,0,0,5.0,0.9283184815699668,365.8311013601818,-49.97118830303903,7.598986126923251,0.003582720846081197
4,p,6,774,2,0,a,25.3549,29,1913.209999911487,3.6450999999999993,5,177,6,0,0,5.0,0.9283184815699668,365.8311013601818,-49.97118830303903,-4.444150753831401,0.0010364571255953383
4,p,3,843,1,0,a,19.19495,24,1775.7050001528114,4.805050000000001,5,178,6,0,0,5.0,0.9283184815699668,365.8311013601818,-49.97118830303903,-5.176856910519035,0.0017499416341844307
4,p,2,504,3,0,a,56.30039,54,6168.99499995634,-2.30039,5,179,6,0,0,5.0,0.9283184815699668,365.8311013601818,-49.97118830303903,-0.8815709383655417,3.822617836953326e-05
4,p,3,652,2,2,a,37.72798,42,1430.7349999435246,4.272019999999998,5,180,6,0,0,5.0,0.9283184815699668,365.8311013601818,-49.97118830303903,-0.015574344060944156,1.8895377856963523e-05
5,a,3,504,3,1,a,56.30039,55,2645.2299999946263,-1.3003900000000002,0,1,4,2,0,0.0,0.021243966949406126,54.08431730431026,-0.3810884232455569,3.2870344742142805,0.0008181035696617513
5,a,7,918,1,2,a,13.04687,41,3383.529999991879,27.95313,0,2,4,2,0,0.0,0.021243966949406126,54.08431730431026,-0.3810884232455569,-10.484456857648745,0.01857512475032432
5,a,3,425,4,1,a,68.59844,56,2464.915000004112,-12.598439999999997,0,3,4,2,0,0.0,0.021243966949406126,54.08431730431026,-0.3810884232455569,4.222063814416657,0.0018340575145421498
5,a,2,329,5,2,a,87.0672,45,2710.470000005444,-42.0672,0,4,4,2,0,0.0,0.021243966949406126,54.08431730431026,-0.3810884232455569,-6.875506795030894,0.00774980356941912
5,a,7,504,3,2,a,56.30039,55,3969.7850000084154,-1.3003900000000002,0,5,4,2,0,0.0,0.021243966949406126,54.08431730431026,-0.3810884232455569,3.2870344742142805,0.0008181035696617386
5,a,4,710,2,1,a,31.58063,46,2279.819999996107,14.41937,0,6,4,2,0,0.0,0.021243966949406126,54.08431730431026,-0.3810884232455569,-5.582370828690195,0.002483282455136935
5,a,3,1000,1,0,a,6.87518,54,2925.9949999977835,47.12482,0,7,4,2,0,0.0,0.021243966949406126,54.08431730431026,-0.3810884232455569,2.548148263123217,0.0018346113525267377
5,a,5,710,2,0,a,31.58063,47,1721.8850000062955,15.41937,0,8,4,2,0,0.0,0.021243966949406126,54.08431730431026,-0.3810884232455569,-4.582370828690195,0.0016305650554355926
5,a,2,390,4,1,a,74.79787,56,2510.980000006384,-18.797870000000003,0,9,4,2,0,0.0,0.021243966949406126,54.08431730431026,-0.3810884232455569,4.189312149354009,0.0022760699747449206
5,a,6,918,1,0,a,13.04687,45,2649.055000001681,31.95313,0,10,4,2,0,0.0,0.021243966949406126,54.08431730431026,-0.3810884232455569,-6.484456857648745,0.0068382619057988855
5,a,2,774,2,0,a,25.3549,55,2154.85500000068,29.6451,0,11,4,2,0,0.0,0.021243966949406126,54.08431730431026,-0.3810884232455569,3.450519733100542,0.0015939905356820393
5,a,6,550,3,1,a,50.0,44,2023.465000005672,-6.0,0,12,4,2,0,0.0,0.021243966949406126,54.08431730431026,-0.3810884232455569,-7.679680496852598,0.003261758622419677
5,a,4,843,1,0,a,19.19495,52,8064.689999999246,32.80505,0,13,4,2,0,0.0,0.021243966949406126,54.08431730431026,-0.3810884232455569,0.4830628111720827,9.01506048815627e-05
5,a,7,710,2,2,a,31.58063,45,8070.275000005495,13.41937,0,14,4,2,0,0.0,0.021243966949406126,54.08431730431026,-0.3810884232455569,-6.582370828690195,0.0035146913658610115
5,a,5,425,4,2,a,68.59844,54,6844.900000010966,-14.598439999999997,0,15,4,2,0,0.0,0.021243966949406126,54.08431730431026,-0.3810884232455569,2.222063814416657,0.0005715489035624714
5,a,6,329,5,2,a,87.0672,47,2317.014999993262,-40.0672,0,16,4,2,0,0.0,0.021243966949406126,54.08431730431026,-0.3810884232455569,-4.875506795030894,0.003751049718020506
5,a,3,710,2,0,a,31.58063,46,2078.9499999955297,14.41937,0,17,4,2,0,0.0,0.021243966949406126,54.08431730431026,-0.3810884232455569,-5.582370828690195,0.002483282455136935
5,a,4,425,4,1,a,68.59844,62,1631.200000003446,-6.5984399999999965,0,18,4,2,0,0.0,0.021243966949406126,54.08431730431026,-0.3810884232455569,10.222063814416657,0.009916639231349519
5,a,3,358,5,2,a,80.9736,44,1950.0699999916835,-36.973600000000005,0,19,4,2,0,0.0,0.021243966949406126,54.08431730431026,-0.3810884232455569,-7.843314260679335,0.00811578000684462
5,a,2,1000,1,0,a,6.87518,62,1936.904999995022,55.12482,0,20,4,2,0,0.0,0.021243966949406126,54.08431730431026,-0.3810884232455569,10.548148263123217,0.02642682293610451
5,a,4,358,5,2,a,80.9736,56,1907.600000005914,-24.973600000000005,0,21,4,2,0,0.0,0.021243966949406126,54.08431730431026,-0.3810884232455569,4.156685739320665,0.002840118975292928
5,a,7,463,4,0,a,62.42097,35,1628.6499999987427,-27.420969999999997,0,22,4,2,0,0.0,0.021243966949406126,54.08431730431026,-0.3810884232455569,-16.745300578956943,0.019747623823363553
5,a,2,550,3,0,a,50.0,58,2814.949999999953,8.0,0,23,4,2,0,0.0,0.021243966949406126,54.08431730431026,-0.3810884232455569,6.320319503147402,0.002636836592244433
5,a,5,918,1,2,a,13.04687,59,5086.745000007795,45.95313,0,24,4,2,0,0.0,0.021243966949406126,54.08431730431026,-0.3810884232455569,7.515543142351255,0.011002968360062862
5,a,6,463,4,0,a,62.42097,57,3503.2399999909103,-5.420969999999997,0,25,4,2,0,0.0,0.021243966949406126,54.08431730431026,-0.3810884232455569,5.254699421043057,0.002259604136736286
5,a,5,599,3,1,a,43.84378,42,3750.125000005937,-1.8437800000000024,0,26,4,2,0,0.0,0.021243966949406126,54.08431730431026,-0.3810884232455569,-9.647157145641586,0.005522711261280553
5,a,7,302,5,0,a,93.24415,63,4329.505000001518,-30.244150000000005,0,27,4,2,0,0.0,0.021243966949406126,54.08431730431026,-0.3810884232455569,11.091860323799956,0.029060214745652447
5,a,4,550,3,2,a,50.0,56,3689.394999993965,6.0,0,28,4,2,0,0.0,0.021243966949406126,54.08431730431026,-0.3810884232455569,4.320319503147402,0.0012856221584114742
5,a,5,358,5,2,a,80.9736,56,2950.33500000136,-24.973600000000005,0,29,4,2,0,0.0,0.021243966949406126,54.08431730431026,-0.3810884232455569,4.156685739320665,0.002840118975292928
5,a,6,652,2,2,a,37.72798,36,10713.669999997364,-1.7279800000000023,0,30,4,2,0,0.0,0.021243966949406126,54.08431730431026,-0.3810884232455569,-15.61484733964469,0.017111519677656863
5,a,4,550,3,0,p,50.0,56,17185.195000012754,6.0,1,31,4,2,0,0.0,0.021243966949406126,54.08431730431026,-0.3810884232455569,4.320319503147402,0.0012856221584114742
5,a,7,774,2,1,p,25.3549,44,4638.214999999036,18.6451,1,32,4,2,0,0.0,0.021243966949406126,54.08431730431026,-0.3810884232455569,-7.549480266899458,0.005901700322146922
5,a,3,504,3,2,p,56.30039,44,7893.035000000964,-12.30039,1,33,4,2,0,0.0,0.021243966949406126,54.08431730431026,-0.3810884232455569,-7.7129655257857195,0.00347392534509592
5,a,6,774,2,2,p,25.3549,44,11119.93000000075,18.6451,1,34,4,2,0,0.0,0.021243966949406126,54.08431730431026,-0.3810884232455569,-7.549480266899458,0.005901700322146922
5,a,3,843,1,0,p,19.19495,56,3073.11500000651,36.80505,1,35,4,2,0,0.0,0.021243966949406126,54.08431730431026,-0.3810884232455569,4.483062811172083,0.0032786461135151956
5,a,4,463,4,0,p,62.42097,57,32649.895000009565,-5.420969999999997,1,36,4,2,0,0.0,0.021243966949406126,54.08431730431026,-0.3810884232455569,5.254699421043057,0.002259604136736286
5,a,2,774,2,1,p,25.3549,53,26174.015000011423,27.6451,1,37,4,2,0,0.0,0.021243966949406126,54.08431730431026,-0.3810884232455569,1.450519733100542,0.00034961605250631984
5,a,3,463,4,0,p,62.42097,43,2614.659999992,-19.420969999999997,1,38,4,2,0,0.0,0.021243966949406126,54.08431730431026,-0.3810884232455569,-8.745300578956943,0.005204212365215423
5,a,4,774,2,2,p,25.3549,46,14472.714999996242,20.6451,1,39,4,2,0,0.0,0.021243966949406126,54.08431730431026,-0.3810884232455569,-5.549480266899458,0.0030908859166203367
5,a,2,918,1,2,p,13.04687,45,5129.799999995157,31.95313,1,40,4,2,0,0.0,0.021243966949406126,54.08431730431026,-0.3810884232455569,-6.484456857648745,0.0068382619057988855
5,a,3,710,2,2,p,31.58063,53,33751.32500000473,21.41937,1,41,4,2,0,0.0,0.021243966949406126,54.08431730431026,-0.3810884232455569,1.4176291713098053,0.00026678238870494363
5,a,5,504,3,2,p,56.30039,55,3072.469999999157,-1.3003900000000002,1,42,4,2,0,0.0,0.021243966949406126,54.08431730431026,-0.3810884232455569,3.2870344742142805,0.0008181035696617386
5,a,6,358,5,1,p,80.9736,57,18172.89499999606,-23.973600000000005,1,43,4,2,0,0.0,0.021243966949406126,54.08431730431026,-0.3810884232455569,5.156685739320665,0.004256405372767249
5,a,4,1000,1,0,p,6.87518,56,3257.920000003651,49.12482,1,44,4,2,0,0.0,0.021243966949406126,54.08431730431026,-0.3810884232455569,4.548148263123217,0.005294759019455863
5,a,3,302,5,1,p,93.24415,40,2516.7599999986123,-53.244150000000005,1,45,4,2,0,0.0,0.021243966949406126,54.08431730431026,-0.3810884232455569,-11.908139676200044,0.030154377994699062
5,a,6,599,3,2,p,43.84378,47,46964.61999999883,3.1562199999999976,1,46,4,2,0,0.0,0.021243966949406126,54.08431730431026,-0.3810884232455569,-4.647157145641586,0.001191997315836266
5,a,4,302,5,2,p,93.24415,45,20261.700000002747,-48.244150000000005,1,47,4,2,0,0.0,0.021243966949406126,54.08431730431026,-0.3810884232455569,-6.908139676200044,0.009769603732184886
5,a,5,774,2,1,p,25.3549,41,5498.535000006086,15.6451,1,48,4,2,0,0.0,0.021243966949406126,54.08431730431026,-0.3810884232455569,-10.549480266899458,0.011807583967396097
5,a,2,390,4,2,p,74.79787,58,1648.269999990589,-16.797870000000003,1,49,4,2,0,0.0,0.021243966949406126,54.08431730431026,-0.3810884232455569,6.189312149354009,0.004752914854232921
5,a,7,504,3,2,p,56.30039,43,2185.0149999954738,-13.30039,1,50,4,2,0,0.0,0.021243966949406126,54.08431730431026,-0.3810884232455569,-8.71296552578572,0.0044753994194861495
5,a,5,390,4,1,p,74.79787,57,1753.790000002482,-17.797870000000003,1,51,4,2,0,0.0,0.021243966949406126,54.08431730431026,-0.3810884232455569,5.189312149354009,0.0034017800919849566
5,a,7,358,5,0,p,80.9736,41,1742.5450000009732,-39.973600000000005,1,52,4,2,0,0.0,0.021243966949406126,54.08431730431026,-0.3810884232455569,-10.843314260679335,0.015859050399706642
5,a,5,918,1,2,p,13.04687,56,1518.869999999879,42.95313,1,53,4,2,0,0.0,0.021243966949406126,54.08431730431026,-0.3810884232455569,4.515543142351255,0.004185757566159475
5,a,6,390,4,2,p,74.79787,46,2276.68999999878,-28.797870000000003,1,54,4,2,0,0.0,0.021243966949406126,54.08431730431026,-0.3810884232455569,-5.810687850645991,0.003417324277780517
5,a,5,302,5,0,p,93.24415,54,1981.9699999934528,-39.244150000000005,1,55,4,2,0,0.0,0.021243966949406126,54.08431730431026,-0.3810884232455569,2.0918603237999562,0.0012826878209476324
5,a,6,843,1,2,p,19.19495,44,1757.6200000039537,24.80505,1,56,4,2,0,0.0,0.021243966949406126,54.08431730431026,-0.3810884232455569,-7.516937188827917,0.007401956608091273
5,a,2,358,5,2,p,80.9736,59,1652.2750000003723,-21.973600000000005,1,57,4,2,0,0.0,0.021243966949406126,54.08431730431026,-0.3810884232455569,7.156685739320665,0.007945558852379108
5,a,7,390,4,1,p,74.79787,44,1866.5649999893503,-30.797870000000003,1,58,4,2,0,0.0,0.021243966949406126,54.08431730431026,-0.3810884232455569,-7.810687850645991,0.006350670878482756
5,a,2,550,3,2,p,50.0,56,1786.9099999952596,6.0,1,59,4,2,0,0.0,0.021243966949406126,54.08431730431026,-0.3810884232455569,4.320319503147402,0.0012856221584114742
5,a,7,918,1,2,p,13.04687,43,2081.360000011045,29.95313,1,60,4,2,0,0.0,0.021243966949406126,54.08431730431026,-0.3810884232455569,-8.484456857648745,0.011988538940599654
5,a,3,463,4,0,a,62.42097,54,1839.0199999994363,-8.420969999999997,2,61,4,2,0,0.0,0.021243966949406126,54.08431730431026,-0.3810884232455569,2.254699421043057,0.00047919570463037593
5,a,6,1000,1,1,a,6.87518,41,1399.424999995972,34.12482,2,62,4,2,0,0.0,0.021243966949406126,54.08431730431026,-0.3810884232455569,-10.451851736876783,0.02302211148817384
5,a,5,774,2,1,a,25.3549,57,1838.789999994333,31.6451,2,63,4,2,0,0.0,0.021243966949406126,54.08431730431026,-0.3810884232455569,5.450519733100542,0.0037395181052360484
5,a,3,329,5,0,a,87.0672,46,1237.685000000056,-41.0672,2,64,4,2,0,0.0,0.021243966949406126,54.08431730431026,-0.3810884232455569,-5.875506795030894,0.005571038728566724
5,a,7,425,4,1,a,68.59844,58,3634.344999998575,-10.598439999999997,2,65,4,2,0,0.0,0.021243966949406126,54.08431730431026,-0.3810884232455569,6.222063814416657,0.003812408772833217
5,a,2,710,2,2,a,31.58063,45,13027.749999993714,13.41937,2,66,4,2,0,0.0,0.021243966949406126,54.08431730431026,-0.3810884232455569,-6.582370828690195,0.0035146913658610115
5,a,5,329,5,1,a,87.0672,57,2618.2100000004284,-30.0672,2,67,4,2,0,0.0,0.021243966949406126,54.08431730431026,-0.3810884232455569,5.124493204969106,0.005283830279398168
5,a,7,652,2,1,a,37.72798,55,2812.3349999950733,17.272019999999998,2,68,4,2,0,0.0,0.021243966949406126,54.08431730431026,-0.3810884232455569,3.3851526603553097,0.0009971360013101343
5,a,2,463,4,0,a,62.42097,58,18566.220000007652,-4.420969999999997,2,69,4,2,0,0.0,0.021243966949406126,54.08431730431026,-0.3810884232455569,6.254699421043057,0.0031453640273942747
5,a,4,774,2,0,a,25.3549,56,2056.049999999348,30.6451,2,70,4,2,0,0.0,0.021243966949406126,54.08431730431026,-0.3810884232455569,4.450519733100542,0.002554110184661758
5,a,2,843,1,1,a,19.19495,57,2726.949999996694,37.80505,2,71,4,2,0,0.0,0.021243966949406126,54.08431730431026,-0.3810884232455569,5.483062811172083,0.004788728168823446
5,a,6,599,3,2,a,43.84378,44,1817.8800000024492,0.15621999999999758,2,72,4,2,0,0.0,0.021243966949406126,54.08431730431026,-0.3810884232455569,-7.647157145641586,0.003410454122070426
5,a,4,302,5,0,a,93.24415,56,1705.0549999987709,-37.244150000000005,2,73,4,2,0,0.0,0.021243966949406126,54.08431730431026,-0.3810884232455569,4.091860323799956,0.004321507386294449
5,a,2,599,3,2,a,43.84378,59,1765.110000007553,15.156219999999998,2,74,4,2,0,0.0,0.021243966949406126,54.08431730431026,-0.3810884232455569,7.352842854358414,0.003717316921872018
5,a,5,1000,1,1,a,6.87518,39,1919.3950000046752,32.12482,2,75,4,2,0,0.0,0.021243966949406126,54.08431730431026,-0.3810884232455569,-12.451851736876783,0.0330014899660713
5,a,4,599,3,1,a,43.84378,61,1712.5400000079535,17.156219999999998,2,76,4,2,0,0.0,0.021243966949406126,54.08431730431026,-0.3810884232455569,9.352842854358414,0.0059114041410292355
5,a,2,302,5,0,a,93.24415,56,37823.33499999368,-37.244150000000005,2,77,4,2,0,0.0,0.021243966949406126,54.08431730431026,-0.3810884232455569,4.091860323799956,0.004321507386294449
5,a,3,774,2,2,a,25.3549,47,2052.6200000019744,21.6451,2,78,4,2,0,0.0,0.021243966949406126,54.08431730431026,-0.3810884232455569,-4.549480266899458,0.002023411121248902
5,a,6,302,5,0,a,93.24415,45,1979.984999998007,-48.244150000000005,2,79,4,2,0,0.0,0.021243966949406126,54.08431730431026,-0.3810884232455569,-6.908139676200044,0.009769603732184886
5,a,7,550,3,1,a,50.0,56,2125.639999998501,6.0,2,80,4,2,0,0.0,0.021243966949406126,54.08431730431026,-0.3810884232455569,4.320319503147402,0.0012856221584114742
5,a,4,1000,1,1,a,6.87518,43,1992.8599999984729,36.12482,2,81,4,2,0,0.0,0.021243966949406126,54.08431730431026,-0.3810884232455569,-8.451851736876783,0.014834669829586589
5,a,3,599,3,0,a,43.84378,58,1773.4599999967031,14.156219999999998,2,82,4,2,0,0.0,0.021243966949406126,54.08431730431026,-0.3810884232455569,6.352842854358414,0.0028102590928096144
5,a,7,1000,1,1,a,6.87518,47,1527.849999998463,40.12482,2,83,4,2,0,0.0,0.021243966949406126,54.08431730431026,-0.3810884232455569,-4.451851736876783,0.0038355969703427225
5,a,5,463,4,1,a,62.42097,56,2156.7749999959487,-6.420969999999997,2,84,4,2,0,0.0,0.021243966949406126,54.08431730431026,-0.3810884232455569,4.254699421043057,0.0015199894527229737
5,a,6,774,2,0,a,25.3549,58,1945.4650000114923,32.6451,2,85,4,2,0,0.0,0.021243966949406126,54.08431730431026,-0.3810884232455569,6.450519733100542,0.005150214297404913
5,a,4,390,4,0,a,74.79787,57,1152.9149999986405,-17.797870000000003,2,86,4,2,0,0.0,0.021243966949406126,54.08431730431026,-0.3810884232455569,5.189312149354009,0.0034017800919849566
5,a,5,550,3,2,a,50.0,59,1568.995000008959,9.0,2,87,4,2,0,0.0,0.021243966949406126,54.08431730431026,-0.3810884232455569,7.320319503147402,0.003492504935357448
5,a,7,358,5,2,a,80.9736,36,1576.2050000047311,-44.973600000000005,2,88,4,2,0,0.0,0.021243966949406126,54.08431730431026,-0.3810884232455569,-15.843314260679335,0.034475038952231446
5,a,3,843,1,1,a,19.19495,57,1973.3200000047216,37.80505,2,89,4,2,0,0.0,0.021243966949406126,54.08431730431026,-0.3810884232455569,5.483062811172083,0.004788728168823446
5,a,6,425,4,1,a,68.59844,53,10329.949999999257,-15.598439999999997,2,90,4,2,0,0.0,0.021243966949406126,54.08431730431026,-0.3810884232455569,1.2220638144166571,0.00020873559081440346
5,a,4,358,5,1,p,80.9736,55,1860.4449999984356,-25.973600000000005,3,91,4,2,0,0.0,0.021243966949406126,54.08431730431026,-0.3810884232455569,3.1566857393206647,0.0017093594727063443
5,a,6,652,2,1,p,37.72798,54,2049.66000000434,16.272019999999998,3,92,4,2,0,0.0,0.021243966949406126,54.08431730431026,-0.3810884232455569,2.3851526603553097,0.000530413090561886
5,a,5,358,5,2,p,80.9736,60,1648.579999993788,-20.973600000000005,3,93,4,2,0,0.0,0.021243966949406126,54.08431730431026,-0.3810884232455569,8.156685739320665,0.010218425934516641
5,a,6,425,4,1,p,68.59844,56,1903.6550000018904,-12.598439999999997,3,94,4,2,0,0.0,0.021243966949406126,54.08431730431026,-0.3810884232455569,4.222063814416657,0.0018340575145421498
5,a,5,550,3,1,p,50.0,59,1379.5600000009872,9.0,3,95,4,2,0,0.0,0.021243966949406126,54.08431730431026,-0.3810884232455569,7.320319503147402,0.003492504935357448
5,a,7,463,4,0,p,62.42097,56,1757.1400000015274,-6.420969999999997,3,96,4,2,0,0.0,0.021243966949406126,54.08431730431026,-0.3810884232455569,4.254699421043057,0.0015199894527229737
5,a,2,504,3,0,p,56.30039,60,1486.2950000097044,3.69961,3,97,4,2,0,0.0,0.021243966949406126,54.08431730431026,-0.3810884232455569,8.28703447421428,0.004677816728014894
5,a,7,1000,1,0,p,6.87518,46,2268.8000000054017,39.12482,3,98,4,2,0,0.0,0.021243966949406126,54.08431730431026,-0.3810884232455569,-5.451851736876783,0.00591338887791236
5,a,4,599,3,1,p,43.84378,59,1521.7650000122376,15.156219999999998,3,99,4,2,0,0.0,0.021243966949406126,54.08431730431026,-0.3810884232455569,7.352842854358414,0.003717316921872018
5,a,3,425,4,1,p,68.59844,46,1723.7650000024587,-22.598439999999997,3,100,4,2,0,0.0,0.021243966949406126,54.08431730431026,-0.3810884232455569,-5.777936185583343,0.0026799409327576515
5,a,2,1000,1,1,p,6.87518,54,2454.1049999971874,47.12482,3,101,4,2,0,0.0,0.021243966949406126,54.08431730431026,-0.3810884232455569,2.548148263123217,0.0018346113525267377
5,a,3,550,3,0,p,50.0,55,1572.6250000006985,5.0,3,102,4,2,0,0.0,0.021243966949406126,54.08431730431026,-0.3810884232455569,3.3203195031474024,0.0007900760676915294
5,a,2,425,4,0,p,68.59844,44,1415.115000010701,-24.598439999999997,3,103,4,2,0,0.0,0.021243966949406126,54.08431730431026,-0.3810884232455569,-7.777936185583343,0.004996645558334918
5,a,3,918,1,1,p,13.04687,59,1938.6200000005772,45.95313,3,104,4,2,0,0.0,0.021243966949406126,54.08431730431026,-0.3810884232455569,7.515543142351255,0.011002968360062862
5,a,6,504,3,1,p,56.30039,59,1972.265000003856,2.69961,3,105,4,2,0,0.0,0.021243966949406126,54.08431730431026,-0.3810884232455569,7.2870344742142805,0.0036525288526212825
5,a,7,329,5,2,p,87.0672,41,1693.0450000071432,-46.0672,3,106,4,2,0,0.0,0.021243966949406126,54.08431730431026,-0.3810884232455569,-10.875506795030894,0.020052621235890487
5,a,5,710,2,2,p,31.58063,55,1947.2450000031383,23.41937,3,107,4,2,0,0.0,0.021243966949406126,54.08431730431026,-0.3810884232455569,3.4176291713098053,0.0012417202546432633
5,a,6,329,5,0,p,87.0672,40,2007.5499999949243,-47.0672,3,108,4,2,0,0.0,0.021243966949406126,54.08431730431026,-0.3810884232455569,-11.875506795030894,0.024025265228273772
5,a,5,425,4,2,p,68.59844,55,1771.995000002673,-13.598439999999997,3,109,4,2,0,0.0,0.021243966949406126,54.08431730431026,-0.3810884232455569,3.222063814416657,0.001113322878138387
5,a,3,329,5,0,p,87.0672,59,1872.830000007525,-28.0672,3,110,4,2,0,0.0,0.021243966949406126,54.08431730431026,-0.3810884232455569,7.124493204969106,0.009895696355347844
5,a,4,710,2,0,p,31.58063,53,2035.7650000078136,21.41937,3,111,4,2,0,0.0,0.021243966949406126,54.08431730431026,-0.3810884232455569,1.4176291713098053,0.00026678238870494363
5,a,2,329,5,0,p,87.0672,43,1913.6099999886935,-44.0672,3,112,4,2,0,0.0,0.021243966949406126,54.08431730431026,-0.3810884232455569,-8.875506795030894,0.013183660742042443
5,a,3,652,2,0,p,37.72798,55,1733.3099999960978,17.272019999999998,3,113,4,2,0,0.0,0.021243966949406126,54.08431730431026,-0.3810884232455569,3.3851526603553097,0.0009971360013101343
5,a,4,918,1,2,p,13.04687,55,2052.1799999987707,41.95313,3,114,4,2,0,0.0,0.021243966949406126,54.08431730431026,-0.3810884232455569,3.5155431423512553,0.0026315083556536314
5,a,7,599,3,1,p,43.84378,58,1732.5449999917764,14.156219999999998,3,115,4,2,0,0.0,0.021243966949406126,54.08431730431026,-0.3810884232455569,6.352842854358414,0.0028102590928096144
5,a,6,1000,1,1,p,6.87518,46,1938.9200000003912,39.12482,3,116,4,2,0,0.0,0.021243966949406126,54.08431730431026,-0.3810884232455569,-5.451851736876783,0.00591338887791236
5,a,2,652,2,0,p,37.72798,56,1952.95500000054,18.272019999999998,3,117,4,2,0,0.0,0.021243966949406126,54.08431730431026,-0.3810884232455569,4.38515266035531,0.0016099531751026135
5,a,4,425,4,2,p,68.59844,45,1696.290000007255,-23.598439999999997,3,118,4,2,0,0.0,0.021243966949406126,54.08431730431026,-0.3810884232455569,-6.777936185583343,0.003748812914632362
5,a,7,652,2,2,p,37.72798,56,2701.66000000597,18.272019999999998,3,119,4,2,0,0.0,0.021243966949406126,54.08431730431026,-0.3810884232455569,4.38515266035531,0.0016099531751026135
5,a,5,1000,1,0,p,6.87518,57,2134.130000005709,50.12482,3,120,4,2,0,0.0,0.021243966949406126,54.08431730431026,-0.3810884232455569,5.548148263123217,0.007696809160161754
5,a,6,843,1,2,a,19.19495,45,1607.4549999902956,25.80505,4,121,4,2,0,0.0,0.021243966949406126,54.08431730431026,-0.3810884232455569,-6.516937188827917,0.005489839408280278
5,a,7,329,5,1,a,87.0672,58,2210.2849999936298,-29.0672,4,122,4,2,0,0.0,0.021243966949406126,54.08431730431026,-0.3810884232455569,6.124493204969106,0.007410375402219916
5,a,4,463,4,2,a,62.42097,41,1964.175000000978,-21.420969999999997,4,123,4,2,0,0.0,0.021243966949406126,54.08431730431026,-0.3810884232455569,-10.745300578956943,0.0079631939898844
5,a,7,774,2,0,a,25.3549,63,1729.510000004666,37.6451,4,124,4,2,0,0.0,0.021243966949406126,54.08431730431026,-0.3810884232455569,11.450519733100542,0.015583019332167821
5,a,3,302,5,1,a,93.24415,61,2345.0099999899976,-32.244150000000005,4,125,4,2,0,0.0,0.021243966949406126,54.08431730431026,-0.3810884232455569,9.091860323799956,0.019753466788908235
5,a,6,390,4,2,a,74.79787,38,1724.8649999964982,-36.79787,4,126,4,2,0,0.0,0.021243966949406126,54.08431730431026,-0.3810884232455569,-13.81068785064599,0.020560902160779715
5,a,4,504,3,0,a,56.30039,56,2290.1999999885447,-0.30039000000000016,4,127,4,2,0,0.0,0.021243966949406126,54.08431730431026,-0.3810884232455569,4.2870344742142805,0.0013367009576093893
5,a,2,652,2,1,a,37.72798,54,1544.299999993993,16.272019999999998,4,128,4,2,0,0.0,0.021243966949406126,54.08431730431026,-0.3810884232455569,2.3851526603553097,0.000530413090561886
5,a,5,302,5,0,a,93.24415,58,1461.6700000041164,-35.244150000000005,4,129,4,2,0,0.0,0.021243966949406126,54.08431730431026,-0.3810884232455569,6.091860323799956,0.009151163634897664
5,a,2,504,3,1,a,56.30039,56,4153.565000000643,-0.30039000000000016,4,130,4,2,0,0.0,0.021243966949406126,54.08431730431026,-0.3810884232455569,4.2870344742142805,0.0013367009576093893
5,a,3,918,1,2,a,13.04687,54,1931.6249999974389,40.95313,4,131,4,2,0,0.0,0.021243966949406126,54.08431730431026,-0.3810884232455569,2.5155431423512553,0.0014363363388787635
5,a,2,358,5,1,a,80.9736,41,1573.0050000129268,-39.973600000000005,4,132,4,2,0,0.0,0.021243966949406126,54.08431730431026,-0.3810884232455569,-10.843314260679335,0.015859050399706642
5,a,3,550,3,2,a,50.0,57,2667.6050000097603,7.0,4,133,4,2,0,0.0,0.021243966949406126,54.08431730431026,-0.3810884232455569,5.320319503147402,0.0019012089999291084
5,a,7,390,4,2,a,74.79787,56,1726.0200000018813,-18.797870000000003,4,134,4,2,0,0.0,0.021243966949406126,54.08431730431026,-0.3810884232455569,4.189312149354009,0.0022760699747449206
5,a,3,652,2,1,a,37.72798,46,2027.1050000009127,8.272019999999998,4,135,4,2,0,0.0,0.021243966949406126,54.08431730431026,-0.3810884232455569,-5.61484733964469,0.0020560232741682035
5,a,2,425,4,2,a,68.59844,54,1742.484999995213,-14.598439999999997,4,136,4,2,0,0.0,0.021243966949406126,54.08431730431026,-0.3810884232455569,2.222063814416657,0.0005715489035624714
5,a,7,843,1,0,a,19.19495,58,1541.855000003241,38.80505,4,137,4,2,0,0.0,0.021243966949406126,54.08431730431026,-0.3810884232455569,6.483062811172083,0.006583993495391633
5,a,6,504,3,0,a,56.30039,58,1519.9250000005122,1.6996099999999998,4,138,4,2,0,0.0,0.021243966949406126,54.08431730431026,-0.3810884232455569,6.2870344742142805,0.002753913599089161
5,a,4,918,1,2,a,13.04687,56,2070.210000005318,42.95313,4,139,4,2,0,0.0,0.021243966949406126,54.08431730431026,-0.3810884232455569,4.515543142351255,0.004185757566159475
5,a,7,599,3,0,a,43.84378,40,1721.1949999909848,-3.8437800000000024,4,140,4,2,0,0.0,0.021243966949406126,54.08431730431026,-0.3810884232455569,-11.647157145641586,0.0081415971485339
5,a,5,843,1,0,a,19.19495,57,2097.880000001285,37.80505,4,141,4,2,0,0.0,0.021243966949406126,54.08431730431026,-0.3810884232455569,5.483062811172083,0.004788728168823446
5,a,4,329,5,1,a,87.0672,46,1765.6699999934062,-41.0672,4,142,4,2,0,0.0,0.021243966949406126,54.08431730431026,-0.3810884232455569,-5.875506795030894,0.005571038728566724
5,a,2,918,1,2,a,13.04687,57,1764.5399999890942,43.95313,4,143,4,2,0,0.0,0.021243966949406126,54.08431730431026,-0.3810884232455569,5.515543142351255,0.006099083970396294
5,a,5,390,4,0,a,74.79787,46,1555.0400000065565,-28.797870000000003,4,144,4,2,0,0.0,0.021243966949406126,54.08431730431026,-0.3810884232455569,-5.810687850645991,0.003417324277780517
5,a,6,710,2,1,a,31.58063,55,1457.8700000131505,23.41937,4,145,4,2,0,0.0,0.021243966949406126,54.08431730431026,-0.3810884232455569,3.4176291713098053,0.0012417202546432633
5,a,5,504,3,0,a,56.30039,54,1886.0699999930805,-2.30039,4,146,4,2,0,0.0,0.021243966949406126,54.08431730431026,-0.3810884232455569,2.2870344742142805,0.0004261788035755776
5,a,6,358,5,1,a,80.9736,41,1953.219999995781,-39.973600000000005,4,147,4,2,0,0.0,0.021243966949406126,54.08431730431026,-0.3810884232455569,-10.843314260679335,0.015859050399706642
5,a,5,652,2,2,a,37.72798,56,2007.8500000089407,18.272019999999998,4,148,4,2,0,0.0,0.021243966949406126,54.08431730431026,-0.3810884232455569,4.38515266035531,0.0016099531751026135
5,a,3,390,4,2,a,74.79787,41,1405.6500000008382,-33.79787,4,149,4,2,0,0.0,0.021243966949406126,54.08431730431026,-0.3810884232455569,-10.81068785064599,0.012441375617095568
5,a,4,652,2,2,a,37.72798,44,1398.105000000447,6.272019999999998,4,150,4,2,0,0.0,0.021243966949406126,54.08431730431026,-0.3810884232455569,-7.61484733964469,0.0038983684505120887
5,a,4,652,2,1,p,37.72798,57,1858.3749999960417,19.272019999999998,5,151,4,2,0,0.0,0.021243966949406126,54.08431730431026,-0.3810884232455569,5.38515266035531,0.002368864611939323
5,a,3,390,4,2,p,74.79787,44,2122.5750000013504,-30.797870000000003,5,152,4,2,0,0.0,0.021243966949406126,54.08431730431026,-0.3810884232455569,-7.810687850645991,0.006350670878482756
5,a,2,599,3,1,p,43.84378,55,2095.9549999972805,11.156219999999998,5,153,4,2,0,0.0,0.021243966949406126,54.08431730431026,-0.3810884232455569,3.352842854358414,0.000849028727687231
5,a,7,425,4,2,p,68.59844,46,1786.274999991292,-22.598439999999997,5,154,4,2,0,0.0,0.021243966949406126,54.08431730431026,-0.3810884232455569,-5.777936185583343,0.0026799409327576515
5,a,5,843,1,1,p,19.19495,55,2014.6150000074413,35.80505,5,155,4,2,0,0.0,0.021243966949406126,54.08431730431026,-0.3810884232455569,3.4830628111720827,0.002053747329466882
5,a,6,463,4,0,p,62.42097,46,1684.2150000010151,-16.420969999999997,5,156,4,2,0,0.0,0.021243966949406126,54.08431730431026,-0.3810884232455569,-5.745300578956943,0.0021618289780470255
5,a,7,710,2,0,p,31.58063,53,1737.2699999979232,21.41937,5,157,4,2,0,0.0,0.021243966949406126,54.08431730431026,-0.3810884232455569,1.4176291713098053,0.00026678238870494363
5,a,3,1000,1,2,p,6.87518,46,1746.5200000004843,39.12482,5,158,4,2,0,0.0,0.021243966949406126,54.08431730431026,-0.3810884232455569,-5.451851736876783,0.00591338887791236
5,a,7,302,5,1,p,93.24415,57,1619.6300000010524,-36.244150000000005,5,159,4,2,0,0.0,0.021243966949406126,54.08431730431026,-0.3810884232455569,5.091860323799956,0.006512480925189007
5,a,3,774,2,1,p,25.3549,42,1664.030000000028,16.6451,5,160,4,2,0,0.0,0.021243966949406126,54.08431730431026,-0.3810884232455569,-9.549480266899458,0.009613667814051803
5,a,5,329,5,1,p,87.0672,54,1801.1100000003353,-33.0672,5,161,4,2,0,0.0,0.021243966949406126,54.08431730431026,-0.3810884232455569,2.124493204969106,0.0010568498927699935
5,a,2,710,2,2,p,31.58063,44,1992.070000007516,12.41937,5,162,4,2,0,0.0,0.021243966949406126,54.08431730431026,-0.3810884232455569,-7.582370828690195,0.004724791787607821
5,a,3,358,5,2,p,80.9736,54,2456.7400000086054,-26.973600000000005,5,163,4,2,0,0.0,0.021243966949406126,54.08431730431026,-0.3810884232455569,2.1566857393206647,0.0008641268650074982
5,a,6,710,2,0,p,31.58063,55,1927.38000000827,23.41937,5,164,4,2,0,0.0,0.021243966949406126,54.08431730431026,-0.3810884232455569,3.4176291713098053,0.0012417202546432633
5,a,7,843,1,1,p,19.19495,37,1727.2450000019744,17.80505,5,165,4,2,0,0.0,0.021243966949406126,54.08431730431026,-0.3810884232455569,-14.516937188827917,0.028771908602046457
5,a,6,302,5,2,p,93.24415,56,1800.7700000018813,-37.244150000000005,5,166,4,2,0,0.0,0.021243966949406126,54.08431730431026,-0.3810884232455569,4.091860323799956,0.004321507386294449
5,a,2,463,4,1,p,62.42097,42,1441.2500000037253,-20.420969999999997,5,167,4,2,0,0.0,0.021243966949406126,54.08431730431026,-0.3810884232455569,-9.745300578956943,0.006510630574227574
5,a,4,329,5,0,p,87.0672,55,1900.50000000326,-32.0672,5,168,4,2,0,0.0,0.021243966949406126,54.08431730431026,-0.3810884232455569,3.124493204969106,0.002107067524673206
5,a,7,550,3,0,p,50.0,44,2362.450000000652,-6.0,5,169,4,2,0,0.0,0.021243966949406126,54.08431730431026,-0.3810884232455569,-7.679680496852598,0.003261758622419677
5,a,4,390,4,1,p,74.79787,55,1875.865000009071,-19.797870000000003,5,170,4,2,0,0.0,0.021243966949406126,54.08431730431026,-0.3810884232455569,3.1893121493540093,0.0013757845025128101
5,a,5,599,3,0,p,43.84378,43,2115.575000003446,-0.8437800000000024,5,171,4,2,0,0.0,0.021243966949406126,54.08431730431026,-0.3810884232455569,-8.647157145641586,0.004403254098170089
5,a,2,843,1,0,p,19.19495,56,1898.2299999915997,36.80505,5,172,4,2,0,0.0,0.021243966949406126,54.08431730431026,-0.3810884232455569,4.483062811172083,0.0032786461135151956
5,a,4,504,3,2,p,56.30039,45,1604.9650000059046,-11.30039,5,173,4,2,0,0.0,0.021243966949406126,54.08431730431026,-0.3810884232455569,-6.7129655257857195,0.0025991238925671804
5,a,5,652,2,0,p,37.72798,60,1922.6950000012291,22.272019999999998,5,174,4,2,0,0.0,0.021243966949406126,54.08431730431026,-0.3810884232455569,8.38515266035531,0.0055221645007148355
5,a,4,843,1,1,p,19.19495,58,1681.589999992866,38.80505,5,175,4,2,0,0.0,0.021243966949406126,54.08431730431026,-0.3810884232455569,6.483062811172083,0.006583993495391633
5,a,2,302,5,1,p,93.24415,55,2552.0499999984168,-38.244150000000005,5,176,4,2,0,0.0,0.021243966949406126,54.08431730431026,-0.3810884232455569,3.0918603237999562,0.002578243018213991
5,a,6,550,3,0,p,50.0,54,1860.4150000028312,4.0,5,177,4,2,0,0.0,0.021243966949406126,54.08431730431026,-0.3810884232455569,2.3203195031474024,0.0004145707277692749
5,a,5,463,4,0,p,62.42097,55,1557.8700000043027,-7.420969999999997,5,178,4,2,0,0.0,0.021243966949406126,54.08431730431026,-0.3810884232455569,3.254699421043057,0.0009265199753543366
5,a,3,599,3,1,p,43.84378,54,1557.6949999956414,10.156219999999998,5,179,4,2,0,0.0,0.021243966949406126,54.08431730431026,-0.3810884232455569,2.352842854358414,0.00044859964666804484
5,a,6,918,1,0,p,13.04687,44,1958.3100000014529,30.95313,5,180,4,2,0,0.0,0.021243966949406126,54.08431730431026,-0.3810884232455569,-7.484456857648745,0.00923386182633378
6,p,6,390,4,0,p,74.79787,73,2423.1000000145286,-1.7978700000000032,0,1,5,0,1,3.0,0.9333163138530041,476.81084499456426,-68.15637821689461,2.820108654642553,0.0008495874322254927
6,p,7,774,2,1,p,25.3549,4,3108.735000016168,-21.3549,0,2,5,0,1,3.0,0.9333163138530041,476.81084499456426,-68.15637821689461,-19.463796641324507,0.025282194346929864
6,p,4,463,4,1,p,62.42097,67,2196.469999966212,4.579030000000003,0,3,5,0,1,3.0,0.9333163138530041,476.81084499456426,-68.15637821689461,8.514401495803462,0.003144735268281465
6,p,2,329,5,0,p,87.0672,90,3248.714999994263,2.9328000000000003,0,4,5,0,1,3.0,0.9333163138530041,476.81084499456426,-68.15637821689461,8.227459233563891,0.008928194230277582
6,p,5,710,2,0,p,31.58063,25,3282.8049999661744,-6.580629999999999,0,5,5,0,1,3.0,0.9333163138530041,476.81084499456426,-68.15637821689461,-4.346162602704922,0.00124730901570355
6,p,7,843,1,1,p,19.19495,0,2745.645000017248,-19.19495,0,6,5,0,1,3.0,0.9333163138530041,476.81084499456426,-68.15637821689461,-17.643576970267866,0.02725378791722368
6,p,3,504,3,2,p,56.30039,55,2763.589999987744,-1.3003900000000002,0,7,5,0,1,3.0,0.9333163138530041,476.81084499456426,-68.15637821689461,2.2974166155805236,0.00021302223675144215
6,p,5,843,1,2,p,19.19495,16,4183.964999974705,-3.1949499999999986,0,8,5,0,1,3.0,0.9333163138530041,476.81084499456426,-68.15637821689461,-1.6435769702678655,0.0006360678706231976
6,p,3,425,4,0,p,68.59844,81,4645.625000004657,12.401560000000003,0,9,5,0,1,3.0,0.9333163138530041,476.81084499456426,-68.15637821689461,16.677633405019677,0.014461355790045921
6,p,4,302,5,1,p,93.24415,89,4050.3800000296906,-4.244150000000005,0,10,5,0,1,3.0,0.9333163138530041,476.81084499456426,-68.15637821689461,1.3911785816107596,0.0011100585090039895
6,p,7,599,3,1,p,43.84378,35,2121.365000028163,-8.843780000000002,0,11,5,0,1,3.0,0.9333163138530041,476.81084499456426,-68.15637821689461,-5.932976717425852,0.0013095511181141874
6,p,2,652,2,1,p,37.72798,26,2908.2749999361117,-11.727980000000002,0,12,5,0,1,3.0,0.9333163138530041,476.81084499456426,-68.15637821689461,-9.15447696956015,0.0036621949321879645
6,p,7,463,4,0,p,62.42097,61,2554.7549999319017,-1.420969999999997,0,13,5,0,1,3.0,0.9333163138530041,476.81084499456426,-68.15637821689461,2.5144014958034617,0.0003433924644205938
6,p,4,710,2,0,p,31.58063,43,2206.5599999623373,11.41937,0,14,5,0,1,3.0,0.9333163138530041,476.81084499456426,-68.15637821689461,13.653837397295078,0.007963169938800467
6,p,6,1000,1,1,p,6.87518,3,2996.5650000376627,-3.8751800000000003,0,15,5,0,1,3.0,0.9333163138530041,476.81084499456426,-68.15637821689461,-3.0032635705074107,0.002681052437912698
6,p,7,358,5,1,p,80.9736,77,5192.480000085197,-3.9736000000000047,0,16,5,0,1,3.0,0.9333163138530041,476.81084499456426,-68.15637821689461,0.9849853434866276,0.00035578033548774196
6,p,6,710,2,1,p,31.58063,17,2476.234999950975,-14.58063,0,17,5,0,1,3.0,0.9333163138530041,476.81084499456426,-68.15637821689461,-12.346162602704922,0.008221870812549197
6,p,2,390,4,1,p,74.79787,71,3735.675000003539,-3.797870000000003,0,18,5,0,1,3.0,0.9333163138530041,476.81084499456426,-68.15637821689461,0.8201086546425529,0.00018505958893945228
6,p,5,504,3,2,p,56.30039,53,2093.499999959022,-3.30039,0,19,5,0,1,3.0,0.9333163138530041,476.81084499456426,-68.15637821689461,0.29741661558052357,8.662333754493365e-06
6,p,3,918,1,2,p,13.04687,12,2419.169999891892,-1.0468700000000002,0,20,5,0,1,3.0,0.9333163138530041,476.81084499456426,-68.15637821689461,0.16542063087739045,0.00016668696801090387
6,p,5,302,5,1,p,93.24415,96,2397.824999992736,2.7558499999999952,0,21,5,0,1,3.0,0.9333163138530041,476.81084499456426,-68.15637821689461,8.39117858161076,0.012097386803954335
6,p,6,599,3,2,p,43.84378,39,2902.215000009164,-4.843780000000002,0,22,5,0,1,3.0,0.9333163138530041,476.81084499456426,-68.15637821689461,-1.932976717425852,0.00016602184156123232
6,p,3,358,5,1,p,80.9736,87,3347.850000020117,6.026399999999995,0,23,5,0,1,3.0,0.9333163138530041,476.81084499456426,-68.15637821689461,10.984985343486628,0.011306399911474157
6,p,5,390,4,1,p,74.79787,67,2232.389999902807,-7.797870000000003,0,24,5,0,1,3.0,0.9333163138530041,476.81084499456426,-68.15637821689461,-3.179891345357447,0.0003057036725623937
6,p,2,843,1,1,p,19.19495,12,2571.790000074543,-7.194949999999999,0,25,5,0,1,3.0,0.9333163138530041,476.81084499456426,-68.15637821689461,-5.6435769702678655,0.0036224861367568514
6,p,6,358,5,1,p,80.9736,88,2876.149999909103,7.026399999999995,0,26,5,0,1,3.0,0.9333163138530041,476.81084499456426,-68.15637821689461,11.984985343486628,0.013243060734770527
6,p,4,599,3,1,p,43.84378,25,2054.3150000739843,-18.843780000000002,0,27,5,0,1,3.0,0.9333163138530041,476.81084499456426,-68.15637821689461,-15.932976717425852,0.008919793068067124
6,p,3,652,2,0,p,37.72798,34,1692.0449999161065,-3.7279800000000023,0,28,5,0,1,3.0,0.9333163138530041,476.81084499456426,-68.15637821689461,-1.1544769695601502,0.00010945374856671343
6,p,2,550,3,1,p,50.0,45,2373.0349999386817,-5.0,0,29,5,0,1,3.0,0.9333163138530041,476.81084499456426,-68.15637821689461,-1.7496683060614018,0.00010283080147084674
6,p,4,843,1,2,p,19.19495,9,2237.829999998212,-10.194949999999999,0,30,5,0,1,3.0,0.9333163138530041,476.81084499456426,-68.15637821689461,-8.643576970267866,0.007467054975020549
6,p,2,550,3,0,a,50.0,47,2224.7950000455603,-3.0,1,31,5,0,1,3.0,0.9333163138530041,476.81084499456426,-68.15637821689461,0.2503316939385982,1.445825894131962e-06
6,p,4,329,5,0,a,87.0672,63,3270.659999921918,-24.0672,1,32,5,0,1,3.0,0.9333163138530041,476.81084499456426,-68.15637821689461,-18.77254076643611,0.0289829756240995
6,p,3,504,3,2,a,56.30039,56,3885.440000100061,-0.30039000000000016,1,33,5,0,1,3.0,0.9333163138530041,476.81084499456426,-68.15637821689461,3.2974166155805236,0.00041703071214319927
6,p,7,843,1,1,a,19.19495,4,2271.4949999935925,-15.194949999999999,1,34,5,0,1,3.0,0.9333163138530041,476.81084499456426,-68.15637821689461,-13.643576970267866,0.016931346160057096
6,p,5,550,3,0,a,50.0,56,3170.459999935701,6.0,1,35,5,0,1,3.0,0.9333163138530041,476.81084499456426,-68.15637821689461,9.250331693938598,0.0027296260205995054
