"trial_type","trial_index","time_elapsed","internal_node_id","subject","tap_condition","code_version","rt","stimulus","key_press","event","button_pressed","response"
"pavlovia","0","4","0.0-0.0","55","false","v1.1","","","","","",""
"html-keyboard-response","1","1422","0.0-1.0","55","false","v1.1","1416.7700000034529","<p>Welcome to the study! Press any key to begin reading the instructions.</p>","32","welcome","",""
"html-button-response","2","2624","0.0-2.0","55","false","v1.1","1199.8999999996158","<p>Before we begin, please close all other browser tabs and programs that may produce sound alerts or notifications, or which may be distracting.</p><p>In this study, we will be asking you to listen to sequences of sounds and to make judgments about them. Therefore, we require that you complete this task using headphones, while seated in a quiet environment. If it is not currently possible for you to satisfy these requirements, please return at a later time to complete the experiment.</p><p>If you are currently accessing the experiment in either Safari or Internet Explorer, please note that the task will NOT run correctly in these browsers. You should copy the URL from this page and paste it into a different web browser to complete the study there, instead. Chrome, Firefox, and the new version of Microsoft Edge are all supported.</p><p>If the text instructions appear too large or too small on your screen, you should adjust your browser's zoom level at this time. When you are ready to continue, press the button below.</p>","","requirements","0",""
"html-button-response","3","4550","0.0-3.0","55","false","v1.1","1924.4000000035157","<p>Before you proceed to the main task, you will be asked to perform an audio test that will require headphones in order for you to respond correctly.</p><p>In this test, you will hear several sets of three tones. For each set, your goal is to determine which of the three tones is the quietest.</p><p>After hearing each set of tones, you will be prompted to press the 1, 2, or 3 key to indicate whether the first, second, or third tone was the quietest.</p><p>Press the button below to begin the test.</p>","","headphone_test_instructions","0",""
"audio-keyboard-response","4","10683","0.0-4.0-0.0","55","false","v1.1","null","headphone_check/antiphase_HC_SIO.wav","null","headphone_test_tones","",""
"html-keyboard-response","5","11411","0.0-4.0-1.0","55","false","v1.1","726.7050000009476","<p>Press the 1, 2, or 3 key on your keyboard to indicate which tone was the quietest.</p><p>If you were not able to hear three tones, check that your headphones are working and that your volume is turned up, then press 0.</p>","49","headphone_test_response","",""
"audio-keyboard-response","6","16917","0.0-4.0-0.1","55","false","v1.1","2897","headphone_check/antiphase_HC_OIS.wav","50","headphone_test_tones","",""
"html-keyboard-response","7","17017","0.0-4.0-1.1","55","false","v1.1","99.7300000017276","<p>Press the 1, 2, or 3 key on your keyboard to indicate which tone was the quietest.</p><p>If you were not able to hear three tones, check that your headphones are working and that your volume is turned up, then press 0.</p>","50","headphone_test_response","",""
"audio-keyboard-response","8","22525","0.0-4.0-0.2","55","false","v1.1","null","headphone_check/antiphase_HC_SOI.wav","null","headphone_test_tones","",""
"html-keyboard-response","9","23117","0.0-4.0-1.2","55","false","v1.1","591.629999995348","<p>Press the 1, 2, or 3 key on your keyboard to indicate which tone was the quietest.</p><p>If you were not able to hear three tones, check that your headphones are working and that your volume is turned up, then press 0.</p>","49","headphone_test_response","",""
"audio-keyboard-response","10","28627","0.0-4.0-0.3","55","false","v1.1","null","headphone_check/antiphase_HC_ISO.wav","null","headphone_test_tones","",""
"html-keyboard-response","11","29497","0.0-4.0-1.3","55","false","v1.1","869.6350000027451","<p>Press the 1, 2, or 3 key on your keyboard to indicate which tone was the quietest.</p><p>If you were not able to hear three tones, check that your headphones are working and that your volume is turned up, then press 0.</p>","50","headphone_test_response","",""
"audio-keyboard-response","12","35006","0.0-4.0-0.4","55","false","v1.1","null","headphone_check/antiphase_HC_IOS.wav","null","headphone_test_tones","",""
"html-keyboard-response","13","36069","0.0-4.0-1.4","55","false","v1.1","1062.3649999979534","<p>Press the 1, 2, or 3 key on your keyboard to indicate which tone was the quietest.</p><p>If you were not able to hear three tones, check that your headphones are working and that your volume is turned up, then press 0.</p>","50","headphone_test_response","",""
"audio-keyboard-response","14","41577","0.0-4.0-0.5","55","false","v1.1","null","headphone_check/antiphase_HC_OSI.wav","null","headphone_test_tones","",""
"html-keyboard-response","15","42102","0.0-4.0-1.5","55","false","v1.1","524.4499999971595","<p>Press the 1, 2, or 3 key on your keyboard to indicate which tone was the quietest.</p><p>If you were not able to hear three tones, check that your headphones are working and that your volume is turned up, then press 0.</p>","50","headphone_test_response","",""
"html-keyboard-response","16","45781","0.0-5.0","55","false","v1.1","2177.8850000046077","<p>Next, you will be asked to tap your finger for a short time at the rate that feels most natural and comfortable to you.</p><p>If you are right-handed, you should tap the J key with your right index finger during this task. If you are left-handed, you should instead tap the F key with your left index finger.</p><p>While completing this exercise, you should rest your wrist on a solid surface and keep your hand still, moving only your index finger to tap the specified key. Go ahead and place your hand in the appropriate position at this time. You should begin tapping when you see a cross (+) appear on the screen, and you should continue tapping until it disappears.</p><p>Remember, you should tap at whatever rate feels most <strong>natural and comfortable</strong> to you. Press the SPACEBAR when you are ready to begin.</p>","32","tap_task_instructions","",""
"audio-multiple-response","17","62789","0.0-6.0","55","false","v1.1","4934,5509,5985,7123","","32,67,67,50","tapping_test","",""
"html-button-response","18","68775","0.0-7.0","55","false","v1.1","4482.029999999213","<p>Now you are ready to proceed to the main task.</p><p>On each trial, you will hear a series of clicks from a metronome, followed by a repeating piano tone. Your goal is to determine how much faster or slower this repeating tone is, compared to the metronome.</p><p>After listening to each pair, you will be given a slider with which to respond. The slider will range from ""Half as Fast"" on the left to ""Twice as Fast"" on the right. If the repeating tone was slower than the metronome, you should move the slider to the left by a distance which represents how much slower it was. If the repeating tone was faster than the metronome, you should instead move the slider to the right by a distance which represents how much faster it was. If the repeating tone was played at the same rate as the metronome, you should place the slider in the center of the range, where it is marked ""Equal Rates"".</p><p>While listening to the metronome and piano tones, try to keep your physical movements to a minimum, and avoid tapping or moving along with the sounds.</p><p>Press the button below to try three practice trials, which will help you get comfortable with the task.</p>","","main_instructions","0",""
"audio-multiple-response","19","73030","0.0-8.0","55","false","v1.1","","stimuli/reference_sequence.wav","","metronome","",""
"audio-multiple-response","20","77854","0.0-9.0","55","false","v1.1","","stimuli/practice_sequence_741.wav","","practice_tones","",""
"html-slider-response","21","82201","0.0-10.0","55","false","v1.1","4345.164999998815","How fast was the repeating tone relative to the metronome?","","response","","50"
"audio-multiple-response","22","85958","0.0-11.0","55","false","v1.1","","stimuli/reference_sequence.wav","","metronome","",""
"audio-multiple-response","23","90010","0.0-12.0","55","false","v1.1","","stimuli/practice_sequence_550.wav","","practice_tones","",""
"html-slider-response","24","94469","0.0-13.0","55","false","v1.1","4458.19499999925","How fast was the repeating tone relative to the metronome?","","response","","50"
"audio-multiple-response","25","98224","0.0-14.0","55","false","v1.1","","stimuli/reference_sequence.wav","","metronome","",""
"audio-multiple-response","26","101707","0.0-15.0","55","false","v1.1","","stimuli/practice_sequence_407.wav","","practice_tones","",""
"html-slider-response","27","104924","0.0-16.0","55","false","v1.1","3215.6299999987823","How fast was the repeating tone relative to the metronome?","","response","","100"
"html-button-response","28","108280","0.0-17.0","55","false","v1.1","1851.330000004964","<p>You have completed the practice trials and are now ready to begin!</p><p>Remember, your goal is to determine how much faster or slower the repeating tone is, compared to the metronome, while keeping your movements to a minimum.</p><p>Please note that the trials are organized into three blocks, and you will have the opportunity to rest between blocks. If the practice trials were too loud or too quiet, adjust your volume now.</p><p><strong>It is critical that you do not adjust your volume any further until the study has concluded.</strong></p><p>Press the button below when you are ready to proceed.</p>","","summary_instructions","0",""
"audio-multiple-response","29","112534","0.0-18.0","55","false","v1.1","","stimuli/reference_sequence.wav","","metronome","",""
"audio-multiple-response","30","116783","0.0-19.0","55","false","v1.1","","stimuli/sequence_3_599_0.wav","","tones","",""
"html-slider-response","31","118904","0.0-20.0","55","false","v1.1","2120.040000001609","How fast was the repeating tone relative to the metronome?","","response","","0"
"audio-multiple-response","32","122658","0.0-21.0","55","false","v1.1","","stimuli/reference_sequence.wav","","metronome","",""
"audio-multiple-response","33","125827","0.0-22.0","55","false","v1.1","","stimuli/sequence_5_329_2.wav","","tones","",""
"html-slider-response","34","127348","0.0-23.0","55","false","v1.1","1520.4400000002352","How fast was the repeating tone relative to the metronome?","","response","","100"
"audio-multiple-response","35","131098","0.0-24.0","55","false","v1.1","","stimuli/reference_sequence.wav","","metronome","",""
"audio-multiple-response","36","135150","0.0-25.0","55","false","v1.1","","stimuli/sequence_4_550_1.wav","","tones","",""
"html-slider-response","37","136063","0.0-26.0","55","false","v1.1","911.1599999960163","How fast was the repeating tone relative to the metronome?","","response","","50"
"audio-multiple-response","38","139812","0.0-27.0","55","false","v1.1","","stimuli/reference_sequence.wav","","metronome","",""
"audio-multiple-response","39","144276","0.0-28.0","55","false","v1.1","","stimuli/sequence_5_652_2.wav","","tones","",""
"html-slider-response","40","145841","0.0-29.0","55","false","v1.1","1563.9950000040699","How fast was the repeating tone relative to the metronome?","","response","","50"
"audio-multiple-response","41","149600","0.0-30.0","55","false","v1.1","","stimuli/reference_sequence.wav","","metronome","",""
"audio-multiple-response","42","152885","0.0-31.0","55","false","v1.1","","stimuli/sequence_4_358_1.wav","","tones","",""
"html-slider-response","43","153479","0.0-32.0","55","false","v1.1","592.7949999968405","How fast was the repeating tone relative to the metronome?","","response","","50"
"audio-multiple-response","44","157227","0.0-33.0","55","false","v1.1","","stimuli/reference_sequence.wav","","metronome","",""
"audio-multiple-response","45","161100","0.0-34.0","55","false","v1.1","","stimuli/sequence_7_504_2.wav","","tones","",""
"html-slider-response","46","162514","0.0-35.0","55","false","v1.1","1413.7449999980163","How fast was the repeating tone relative to the metronome?","","response","","50"
"audio-multiple-response","47","166272","0.0-36.0","55","false","v1.1","","stimuli/reference_sequence.wav","","metronome","",""
"audio-multiple-response","48","171224","0.0-37.0","55","false","v1.1","","stimuli/sequence_2_774_1.wav","","tones","",""
"html-slider-response","49","173033","0.0-38.0","55","false","v1.1","1808.4149999995134","How fast was the repeating tone relative to the metronome?","","response","","0"
"audio-multiple-response","50","176785","0.0-39.0","55","false","v1.1","","stimuli/reference_sequence.wav","","metronome","",""
"audio-multiple-response","51","180077","0.0-40.0","55","false","v1.1","","stimuli/sequence_7_358_0.wav","","tones","",""
"html-slider-response","52","191632","0.0-41.0","55","false","v1.1","11553.850000003877","How fast was the repeating tone relative to the metronome?","","response","","50"
"audio-multiple-response","53","195385","0.0-42.0","55","false","v1.1","","stimuli/reference_sequence.wav","","metronome","",""
"audio-multiple-response","54","199443","0.0-43.0","55","false","v1.1","","stimuli/sequence_5_550_1.wav","","tones","",""
"html-slider-response","55","208350","0.0-44.0","55","false","v1.1","8905.769999997574","How fast was the repeating tone relative to the metronome?","","response","","50"
"audio-multiple-response","56","212104","0.0-45.0","55","false","v1.1","","stimuli/reference_sequence.wav","","metronome","",""
"audio-multiple-response","57","217961","0.0-46.0","55","false","v1.1","","stimuli/sequence_2_1000_0.wav","","tones","",""
"html-slider-response","58","220911","0.0-47.0","55","false","v1.1","2949.1549999947893","How fast was the repeating tone relative to the metronome?","","response","","50"
"audio-multiple-response","59","224660","0.0-48.0","55","false","v1.1","","stimuli/reference_sequence.wav","","metronome","",""
"audio-multiple-response","60","229351","0.0-49.0","55","false","v1.1","","stimuli/sequence_3_710_2.wav","","tones","",""
"html-slider-response","61","232106","0.0-50.0","55","false","v1.1","2753.629999999248","How fast was the repeating tone relative to the metronome?","","response","","50"
"audio-multiple-response","62","235858","0.0-51.0","55","false","v1.1","","stimuli/reference_sequence.wav","","metronome","",""
"audio-multiple-response","63","239725","0.0-52.0","55","false","v1.1","","stimuli/sequence_2_504_2.wav","","tones","",""
"html-slider-response","64","241324","0.0-53.0","55","false","v1.1","1597.604999995383","How fast was the repeating tone relative to the metronome?","","response","","50"
"audio-multiple-response","65","245077","0.0-54.0","55","false","v1.1","","stimuli/reference_sequence.wav","","metronome","",""
"audio-multiple-response","66","248490","0.0-55.0","55","false","v1.1","","stimuli/sequence_6_390_0.wav","","tones","",""
"html-slider-response","67","249902","0.0-56.0","55","false","v1.1","1410.6600000013714","How fast was the repeating tone relative to the metronome?","","response","","100"
"audio-multiple-response","68","253657","0.0-57.0","55","false","v1.1","","stimuli/reference_sequence.wav","","metronome","",""
"audio-multiple-response","69","259190","0.0-58.0","55","false","v1.1","","stimuli/sequence_7_918_0.wav","","tones","",""
"html-slider-response","70","260792","0.0-59.0","55","false","v1.1","1601.8150000018068","How fast was the repeating tone relative to the metronome?","","response","","0"
"audio-multiple-response","71","264548","0.0-60.0","55","false","v1.1","","stimuli/reference_sequence.wav","","metronome","",""
"audio-multiple-response","72","268257","0.0-61.0","55","false","v1.1","","stimuli/sequence_2_463_1.wav","","tones","",""
"html-slider-response","73","271299","0.0-62.0","55","false","v1.1","3041.5849999990314","How fast was the repeating tone relative to the metronome?","","response","","100"
"audio-multiple-response","74","275049","0.0-63.0","55","false","v1.1","","stimuli/reference_sequence.wav","","metronome","",""
"audio-multiple-response","75","280906","0.0-64.0","55","false","v1.1","","stimuli/sequence_6_1000_1.wav","","tones","",""
"html-slider-response","76","283014","0.0-65.0","55","false","v1.1","2106.7450000045937","How fast was the repeating tone relative to the metronome?","","response","","0"
"audio-multiple-response","77","286764","0.0-66.0","55","false","v1.1","","stimuli/reference_sequence.wav","","metronome","",""
"audio-multiple-response","78","290317","0.0-67.0","55","false","v1.1","","stimuli/sequence_3_425_0.wav","","tones","",""
"html-slider-response","79","292483","0.0-68.0","55","false","v1.1","2165.4300000009243","How fast was the repeating tone relative to the metronome?","","response","","100"
"audio-multiple-response","80","296232","0.0-69.0","55","false","v1.1","","stimuli/reference_sequence.wav","","metronome","",""
"audio-multiple-response","81","301759","0.0-70.0","55","false","v1.1","","stimuli/sequence_4_918_1.wav","","tones","",""
"html-slider-response","82","304693","0.0-71.0","55","false","v1.1","2933.8299999944866","How fast was the repeating tone relative to the metronome?","","response","","50"
"audio-multiple-response","83","308446","0.0-72.0","55","false","v1.1","","stimuli/reference_sequence.wav","","metronome","",""
"audio-multiple-response","84","311865","0.0-73.0","55","false","v1.1","","stimuli/sequence_5_390_1.wav","","tones","",""
"html-slider-response","85","313366","0.0-74.0","55","false","v1.1","1499.6650000030058","How fast was the repeating tone relative to the metronome?","","response","","50"
"audio-multiple-response","86","317119","0.0-75.0","55","false","v1.1","","stimuli/reference_sequence.wav","","metronome","",""
"audio-multiple-response","87","320178","0.0-76.0","55","false","v1.1","","stimuli/sequence_3_302_0.wav","","tones","",""
"html-slider-response","88","323325","0.0-77.0","55","false","v1.1","3146.0750000042026","How fast was the repeating tone relative to the metronome?","","response","","100"
"audio-multiple-response","89","327081","0.0-78.0","55","false","v1.1","","stimuli/reference_sequence.wav","","metronome","",""
"audio-multiple-response","90","330790","0.0-79.0","55","false","v1.1","","stimuli/sequence_4_463_0.wav","","tones","",""
"html-slider-response","91","332873","0.0-80.0","55","false","v1.1","2082.174999995914","How fast was the repeating tone relative to the metronome?","","response","","50"
"audio-multiple-response","92","336630","0.0-81.0","55","false","v1.1","","stimuli/reference_sequence.wav","","metronome","",""
"audio-multiple-response","93","341576","0.0-82.0","55","false","v1.1","","stimuli/sequence_7_774_1.wav","","tones","",""
"html-slider-response","94","342970","0.0-83.0","55","false","v1.1","1392.9649999990943","How fast was the repeating tone relative to the metronome?","","response","","50"
"audio-multiple-response","95","346725","0.0-84.0","55","false","v1.1","","stimuli/reference_sequence.wav","","metronome","",""
"audio-multiple-response","96","349785","0.0-85.0","55","false","v1.1","","stimuli/sequence_6_302_0.wav","","tones","",""
"html-slider-response","97","350476","0.0-86.0","55","false","v1.1","690.6050000034156","How fast was the repeating tone relative to the metronome?","","response","","50"
"audio-multiple-response","98","354231","0.0-87.0","55","false","v1.1","","stimuli/reference_sequence.wav","","metronome","",""
"audio-multiple-response","99","360083","0.0-88.0","55","false","v1.1","","stimuli/sequence_3_1000_0.wav","","tones","",""
"html-slider-response","100","363464","0.0-89.0","55","false","v1.1","3379.9250000010943","How fast was the repeating tone relative to the metronome?","","response","","50"
"audio-multiple-response","101","367218","0.0-90.0","55","false","v1.1","","stimuli/reference_sequence.wav","","metronome","",""
"audio-multiple-response","102","372164","0.0-91.0","55","false","v1.1","","stimuli/sequence_6_774_1.wav","","tones","",""
"html-slider-response","103","374755","0.0-92.0","55","false","v1.1","2590.5100000018138","How fast was the repeating tone relative to the metronome?","","response","","50"
"audio-multiple-response","104","378509","0.0-93.0","55","false","v1.1","","stimuli/reference_sequence.wav","","metronome","",""
"audio-multiple-response","105","381678","0.0-94.0","55","false","v1.1","","stimuli/sequence_2_329_2.wav","","tones","",""
"html-slider-response","106","382930","0.0-95.0","55","false","v1.1","1251.1149999991176","How fast was the repeating tone relative to the metronome?","","response","","50"
"audio-multiple-response","107","386688","0.0-96.0","55","false","v1.1","","stimuli/reference_sequence.wav","","metronome","",""
"audio-multiple-response","108","392220","0.0-97.0","55","false","v1.1","","stimuli/sequence_5_918_2.wav","","tones","",""
"html-slider-response","109","392862","0.0-98.0","55","false","v1.1","640.480000001844","How fast was the repeating tone relative to the metronome?","","response","","50"
"audio-multiple-response","110","396615","0.0-99.0","55","false","v1.1","","stimuli/reference_sequence.wav","","metronome","",""
"audio-multiple-response","111","400673","0.0-100.0","55","false","v1.1","","stimuli/sequence_6_550_2.wav","","tones","",""
"html-slider-response","112","401517","0.0-101.0","55","false","v1.1","843.9199999993434","How fast was the repeating tone relative to the metronome?","","response","","50"
"audio-multiple-response","113","405270","0.0-102.0","55","false","v1.1","","stimuli/reference_sequence.wav","","metronome","",""
"audio-multiple-response","114","408829","0.0-103.0","55","false","v1.1","","stimuli/sequence_7_425_1.wav","","tones","",""
"html-slider-response","115","409733","0.0-104.0","55","false","v1.1","903.3100000015111","How fast was the repeating tone relative to the metronome?","","response","","50"
"audio-multiple-response","116","413485","0.0-105.0","55","false","v1.1","","stimuli/reference_sequence.wav","","metronome","",""
"audio-multiple-response","117","418175","0.0-106.0","55","false","v1.1","","stimuli/sequence_4_710_2.wav","","tones","",""
"html-slider-response","118","418901","0.0-107.0","55","false","v1.1","725.2949999965494","How fast was the repeating tone relative to the metronome?","","response","","50"
"html-button-response","119","422229","0.0-108.0","55","false","v1.1","1823.8950000013574","<h3>You have completed block 1 of 3</h3><p>When you are ready to continue, press the button below to begin the second block.</p><p><em>Remember to avoid moving while listening to the clicks and tones on each trial.</em></p><p><em>Additionally, please do not adjust your volume until the study has concluded.</em></p>","","break","0",""
"audio-multiple-response","120","426483","0.0-109.0","55","false","v1.1","","stimuli/reference_sequence.wav","","metronome","",""
"audio-multiple-response","121","429902","0.0-110.0","55","false","v1.1","","stimuli/sequence_7_390_0.wav","","tones","",""
"html-slider-response","122","432869","0.0-111.0","55","false","v1.1","2966.0149999981513","How fast was the repeating tone relative to the metronome?","","response","","100"
"audio-multiple-response","123","436624","0.0-112.0","55","false","v1.1","","stimuli/reference_sequence.wav","","metronome","",""
"audio-multiple-response","124","439800","0.0-113.0","55","false","v1.1","","stimuli/sequence_3_329_1.wav","","tones","",""
"html-slider-response","125","440416","0.0-114.0","55","false","v1.1","615.749999997206","How fast was the repeating tone relative to the metronome?","","response","","50"
"audio-multiple-response","126","444171","0.0-115.0","55","false","v1.1","","stimuli/reference_sequence.wav","","metronome","",""
"audio-multiple-response","127","449117","0.0-116.0","55","false","v1.1","","stimuli/sequence_5_774_0.wav","","tones","",""
"html-slider-response","128","449888","0.0-117.0","55","false","v1.1","769.7100000004866","How fast was the repeating tone relative to the metronome?","","response","","50"
"audio-multiple-response","129","453645","0.0-118.0","55","false","v1.1","","stimuli/reference_sequence.wav","","metronome","",""
"audio-multiple-response","130","456815","0.0-119.0","55","false","v1.1","","stimuli/sequence_6_329_2.wav","","tones","",""
"html-slider-response","131","458483","0.0-120.0","55","false","v1.1","1667.8249999968102","How fast was the repeating tone relative to the metronome?","","response","","100"
"audio-multiple-response","132","462237","0.0-121.0","55","false","v1.1","","stimuli/reference_sequence.wav","","metronome","",""
"audio-multiple-response","133","465650","0.0-122.0","55","false","v1.1","","stimuli/sequence_3_390_1.wav","","tones","",""
"html-slider-response","134","468710","0.0-123.0","55","false","v1.1","3059.4249999994645","How fast was the repeating tone relative to the metronome?","","response","","0"
"audio-multiple-response","135","472465","0.0-124.0","55","false","v1.1","","stimuli/reference_sequence.wav","","metronome","",""
"audio-multiple-response","136","475524","0.0-125.0","55","false","v1.1","","stimuli/sequence_5_302_0.wav","","tones","",""
"html-slider-response","137","476462","0.0-126.0","55","false","v1.1","936.8150000009337","How fast was the repeating tone relative to the metronome?","","response","","50"
"audio-multiple-response","138","480215","0.0-127.0","55","false","v1.1","","stimuli/reference_sequence.wav","","metronome","",""
"audio-multiple-response","139","484087","0.0-128.0","55","false","v1.1","","stimuli/sequence_4_504_0.wav","","tones","",""
"html-slider-response","140","484795","0.0-129.0","55","false","v1.1","706.4299999983632","How fast was the repeating tone relative to the metronome?","","response","","50"
"audio-multiple-response","141","488551","0.0-130.0","55","false","v1.1","","stimuli/reference_sequence.wav","","metronome","",""
"audio-multiple-response","142","491616","0.0-131.0","55","false","v1.1","","stimuli/sequence_2_302_0.wav","","tones","",""
"html-slider-response","143","492570","0.0-132.0","55","false","v1.1","952.6200000036624","How fast was the repeating tone relative to the metronome?","","response","","50"
"audio-multiple-response","144","496324","0.0-133.0","55","false","v1.1","","stimuli/reference_sequence.wav","","metronome","",""
"audio-multiple-response","145","502182","0.0-134.0","55","false","v1.1","","stimuli/sequence_5_1000_1.wav","","tones","",""
"html-slider-response","146","503502","0.0-135.0","55","false","v1.1","1319.7499999951106","How fast was the repeating tone relative to the metronome?","","response","","50"
"audio-multiple-response","147","507256","0.0-136.0","55","false","v1.1","","stimuli/reference_sequence.wav","","metronome","",""
"audio-multiple-response","148","510321","0.0-137.0","55","false","v1.1","","stimuli/sequence_4_302_0.wav","","tones","",""
"html-slider-response","149","511218","0.0-138.0","55","false","v1.1","896.54999999766","How fast was the repeating tone relative to the metronome?","","response","","50"
"audio-multiple-response","150","514971","0.0-139.0","55","false","v1.1","","stimuli/reference_sequence.wav","","metronome","",""
"audio-multiple-response","151","520497","0.0-140.0","55","false","v1.1","","stimuli/sequence_3_918_2.wav","","tones","",""
"html-slider-response","152","521760","0.0-141.0","55","false","v1.1","1262.5049999988405","How fast was the repeating tone relative to the metronome?","","response","","50"
"audio-multiple-response","153","525513","0.0-142.0","55","false","v1.1","","stimuli/reference_sequence.wav","","metronome","",""
"audio-multiple-response","154","529971","0.0-143.0","55","false","v1.1","","stimuli/sequence_7_652_2.wav","","tones","",""
"html-slider-response","155","530848","0.0-144.0","55","false","v1.1","876.0100000000093","How fast was the repeating tone relative to the metronome?","","response","","50"
"audio-multiple-response","156","534598","0.0-145.0","55","false","v1.1","","stimuli/reference_sequence.wav","","metronome","",""
"audio-multiple-response","157","540455","0.0-146.0","55","false","v1.1","","stimuli/sequence_4_1000_2.wav","","tones","",""
"html-slider-response","158","541267","0.0-147.0","55","false","v1.1","810.6450000050245","How fast was the repeating tone relative to the metronome?","","response","","50"
"audio-multiple-response","159","545018","0.0-148.0","55","false","v1.1","","stimuli/reference_sequence.wav","","metronome","",""
"audio-multiple-response","160","548890","0.0-149.0","55","false","v1.1","","stimuli/sequence_5_504_0.wav","","tones","",""
"html-slider-response","161","549963","0.0-150.0","55","false","v1.1","1071.750000002794","How fast was the repeating tone relative to the metronome?","","response","","50"
"audio-multiple-response","162","553720","0.0-151.0","55","false","v1.1","","stimuli/reference_sequence.wav","","metronome","",""
"audio-multiple-response","163","557134","0.0-152.0","55","false","v1.1","","stimuli/sequence_4_390_1.wav","","tones","",""
"html-slider-response","164","557791","0.0-153.0","55","false","v1.1","656.3300000053132","How fast was the repeating tone relative to the metronome?","","response","","50"
"audio-multiple-response","165","561545","0.0-154.0","55","false","v1.1","","stimuli/reference_sequence.wav","","metronome","",""
"audio-multiple-response","166","567403","0.0-155.0","55","false","v1.1","","stimuli/sequence_7_1000_2.wav","","tones","",""
"html-slider-response","167","568118","0.0-156.0","55","false","v1.1","714.5699999963399","How fast was the repeating tone relative to the metronome?","","response","","50"
"audio-multiple-response","168","571873","0.0-157.0","55","false","v1.1","","stimuli/reference_sequence.wav","","metronome","",""
"audio-multiple-response","169","576825","0.0-158.0","55","false","v1.1","","stimuli/sequence_3_774_0.wav","","tones","",""
"html-slider-response","170","577374","0.0-159.0","55","false","v1.1","548.564999997383","How fast was the repeating tone relative to the metronome?","","response","","50"
"audio-multiple-response","171","581132","0.0-160.0","55","false","v1.1","","stimuli/reference_sequence.wav","","metronome","",""
"audio-multiple-response","172","586658","0.0-161.0","55","false","v1.1","","stimuli/sequence_6_918_0.wav","","tones","",""
"html-slider-response","173","588058","0.0-162.0","55","false","v1.1","1399.1349999995437","How fast was the repeating tone relative to the metronome?","","response","","50"
"audio-multiple-response","174","591813","0.0-163.0","55","false","v1.1","","stimuli/reference_sequence.wav","","metronome","",""
"audio-multiple-response","175","594983","0.0-164.0","55","false","v1.1","","stimuli/sequence_7_329_2.wav","","tones","",""
"html-slider-response","176","595714","0.0-165.0","55","false","v1.1","729.9100000018952","How fast was the repeating tone relative to the metronome?","","response","","50"
"audio-multiple-response","177","599465","0.0-166.0","55","false","v1.1","","stimuli/reference_sequence.wav","","metronome","",""
"audio-multiple-response","178","604997","0.0-167.0","55","false","v1.1","","stimuli/sequence_2_918_2.wav","","tones","",""
"html-slider-response","179","605729","0.0-168.0","55","false","v1.1","731.6950000021607","How fast was the repeating tone relative to the metronome?","","response","","50"
"audio-multiple-response","180","609484","0.0-169.0","55","false","v1.1","","stimuli/reference_sequence.wav","","metronome","",""
"audio-multiple-response","181","614436","0.0-170.0","55","false","v1.1","","stimuli/sequence_4_774_1.wav","","tones","",""
"html-slider-response","182","615989","0.0-171.0","55","false","v1.1","1551.8600000068545","How fast was the repeating tone relative to the metronome?","","response","","50"
"audio-multiple-response","183","619742","0.0-172.0","55","false","v1.1","","stimuli/reference_sequence.wav","","metronome","",""
"audio-multiple-response","184","623452","0.0-173.0","55","false","v1.1","","stimuli/sequence_6_463_2.wav","","tones","",""
"html-slider-response","185","624120","0.0-174.0","55","false","v1.1","667.8899999969872","How fast was the repeating tone relative to the metronome?","","response","","50"
"audio-multiple-response","186","627869","0.0-175.0","55","false","v1.1","","stimuli/reference_sequence.wav","","metronome","",""
"audio-multiple-response","187","632566","0.0-176.0","55","false","v1.1","","stimuli/sequence_2_710_0.wav","","tones","",""
"html-slider-response","188","633205","0.0-177.0","55","false","v1.1","638.1250000048894","How fast was the repeating tone relative to the metronome?","","response","","50"
"audio-multiple-response","189","636954","0.0-178.0","55","false","v1.1","","stimuli/reference_sequence.wav","","metronome","",""
"audio-multiple-response","190","640821","0.0-179.0","55","false","v1.1","","stimuli/sequence_6_504_0.wav","","tones","",""
"html-slider-response","191","642129","0.0-180.0","55","false","v1.1","1307.9750000033528","How fast was the repeating tone relative to the metronome?","","response","","50"
"audio-multiple-response","192","645883","0.0-181.0","55","false","v1.1","","stimuli/reference_sequence.wav","","metronome","",""
"audio-multiple-response","193","649302","0.0-182.0","55","false","v1.1","","stimuli/sequence_2_390_2.wav","","tones","",""
"html-slider-response","194","650205","0.0-183.0","55","false","v1.1","902.6949999970384","How fast was the repeating tone relative to the metronome?","","response","","50"
"audio-multiple-response","195","653964","0.0-184.0","55","false","v1.1","","stimuli/reference_sequence.wav","","metronome","",""
"audio-multiple-response","196","658016","0.0-185.0","55","false","v1.1","","stimuli/sequence_3_550_1.wav","","tones","",""
"html-slider-response","197","659261","0.0-186.0","55","false","v1.1","1244.5650000008754","How fast was the repeating tone relative to the metronome?","","response","","50"
"audio-multiple-response","198","663014","0.0-187.0","55","false","v1.1","","stimuli/reference_sequence.wav","","metronome","",""
"audio-multiple-response","199","667478","0.0-188.0","55","false","v1.1","","stimuli/sequence_6_652_0.wav","","tones","",""
"html-slider-response","200","668645","0.0-189.0","55","false","v1.1","1166.5350000039907","How fast was the repeating tone relative to the metronome?","","response","","50"
"audio-multiple-response","201","672401","0.0-190.0","55","false","v1.1","","stimuli/reference_sequence.wav","","metronome","",""
"audio-multiple-response","202","676459","0.0-191.0","55","false","v1.1","","stimuli/sequence_2_550_1.wav","","tones","",""
"html-slider-response","203","678349","0.0-192.0","55","false","v1.1","1889.114999998128","How fast was the repeating tone relative to the metronome?","","response","","0"
"audio-multiple-response","204","682107","0.0-193.0","55","false","v1.1","","stimuli/reference_sequence.wav","","metronome","",""
"audio-multiple-response","205","685817","0.0-194.0","55","false","v1.1","","stimuli/sequence_5_463_0.wav","","tones","",""
"html-slider-response","206","688017","0.0-195.0","55","false","v1.1","2199.914999997476","How fast was the repeating tone relative to the metronome?","","response","","100"
"audio-multiple-response","207","691773","0.0-196.0","55","false","v1.1","","stimuli/reference_sequence.wav","","metronome","",""
"audio-multiple-response","208","696022","0.0-197.0","55","false","v1.1","","stimuli/sequence_7_599_1.wav","","tones","",""
"html-slider-response","209","704457","0.0-198.0","55","false","v1.1","8433.9149999941","How fast was the repeating tone relative to the metronome?","","response","","50"
"html-button-response","210","715822","0.0-199.0","55","false","v1.1","9860.209999998915","<h3>You have completed block 2 of 3</h3><p>When you are ready to continue, press the button below to begin the final block.</p><p><em>Remember to avoid moving while listening to the clicks and tones on each trial.</em></p><p><em>Additionally, please do not adjust your volume until the study has concluded.</em></p>","","break","0",""
"audio-multiple-response","211","720073","0.0-200.0","55","false","v1.1","","stimuli/reference_sequence.wav","","metronome","",""
"audio-multiple-response","212","723364","0.0-201.0","55","false","v1.1","","stimuli/sequence_3_358_2.wav","","tones","",""
"html-slider-response","213","727949","0.0-202.0","55","false","v1.1","4583.760000001406","How fast was the repeating tone relative to the metronome?","","response","","100"
"audio-multiple-response","214","731706","0.0-203.0","55","false","v1.1","","stimuli/reference_sequence.wav","","metronome","",""
"audio-multiple-response","215","735956","0.0-204.0","55","false","v1.1","","stimuli/sequence_5_599_2.wav","","tones","",""
"html-slider-response","216","739136","0.0-205.0","55","false","v1.1","3178.9650000064867","How fast was the repeating tone relative to the metronome?","","response","","100"
"audio-multiple-response","217","742887","0.0-206.0","55","false","v1.1","","stimuli/reference_sequence.wav","","metronome","",""
"audio-multiple-response","218","748118","0.0-207.0","55","false","v1.1","","stimuli/sequence_7_843_1.wav","","tones","",""
"html-slider-response","219","750829","0.0-208.0","55","false","v1.1","2710.415000001318","How fast was the repeating tone relative to the metronome?","","response","","50"
"audio-multiple-response","220","754579","0.0-209.0","55","false","v1.1","","stimuli/reference_sequence.wav","","metronome","",""
"audio-multiple-response","221","759275","0.0-210.0","55","false","v1.1","","stimuli/sequence_5_710_1.wav","","tones","",""
"html-slider-response","222","759940","0.0-211.0","55","false","v1.1","664.5050000005867","How fast was the repeating tone relative to the metronome?","","response","","50"
"audio-multiple-response","223","763693","0.0-212.0","55","false","v1.1","","stimuli/reference_sequence.wav","","metronome","",""
"audio-multiple-response","224","768923","0.0-213.0","55","false","v1.1","","stimuli/sequence_2_843_1.wav","","tones","",""
"html-slider-response","225","771654","0.0-214.0","55","false","v1.1","2729.704999997979","How fast was the repeating tone relative to the metronome?","","response","","50"
"audio-multiple-response","226","775407","0.0-215.0","55","false","v1.1","","stimuli/reference_sequence.wav","","metronome","",""
"audio-multiple-response","227","779117","0.0-216.0","55","false","v1.1","","stimuli/sequence_3_463_2.wav","","tones","",""
"html-slider-response","228","787054","0.0-217.0","55","false","v1.1","7935.579999997513","How fast was the repeating tone relative to the metronome?","","response","","50"
"audio-multiple-response","229","790809","0.0-218.0","55","false","v1.1","","stimuli/reference_sequence.wav","","metronome","",""
"audio-multiple-response","230","795267","0.0-219.0","55","false","v1.1","","stimuli/sequence_4_652_0.wav","","tones","",""
"html-slider-response","231","796076","0.0-220.0","55","false","v1.1","808.5150000042049","How fast was the repeating tone relative to the metronome?","","response","","50"
"audio-multiple-response","232","799830","0.0-221.0","55","false","v1.1","","stimuli/reference_sequence.wav","","metronome","",""
"audio-multiple-response","233","803121","0.0-222.0","55","false","v1.1","","stimuli/sequence_2_358_1.wav","","tones","",""
"html-slider-response","234","810111","0.0-223.0","55","false","v1.1","6988.675000000512","How fast was the repeating tone relative to the metronome?","","response","","0"
"audio-multiple-response","235","813861","0.0-224.0","55","false","v1.1","","stimuli/reference_sequence.wav","","metronome","",""
"audio-multiple-response","236","818116","0.0-225.0","55","false","v1.1","","stimuli/sequence_4_599_2.wav","","tones","",""
"html-slider-response","237","819946","0.0-226.0","55","false","v1.1","1828.4749999948544","How fast was the repeating tone relative to the metronome?","","response","","50"
"audio-multiple-response","238","823701","0.0-227.0","55","false","v1.1","","stimuli/reference_sequence.wav","","metronome","",""
"audio-multiple-response","239","826986","0.0-228.0","55","false","v1.1","","stimuli/sequence_5_358_1.wav","","tones","",""
"html-slider-response","240","827833","0.0-229.0","55","false","v1.1","845.6999999980908","How fast was the repeating tone relative to the metronome?","","response","","50"
"audio-multiple-response","241","831590","0.0-230.0","55","false","v1.1","","stimuli/reference_sequence.wav","","metronome","",""
"audio-multiple-response","242","835462","0.0-231.0","55","false","v1.1","","stimuli/sequence_3_504_2.wav","","tones","",""
"html-slider-response","243","836369","0.0-232.0","55","false","v1.1","906.2100000010105","How fast was the repeating tone relative to the metronome?","","response","","50"
"audio-multiple-response","244","840118","0.0-233.0","55","false","v1.1","","stimuli/reference_sequence.wav","","metronome","",""
"audio-multiple-response","245","843676","0.0-234.0","55","false","v1.1","","stimuli/sequence_4_425_2.wav","","tones","",""
"html-slider-response","246","848608","0.0-235.0","55","false","v1.1","4931.034999994212","How fast was the repeating tone relative to the metronome?","","response","","50"
"audio-multiple-response","247","852361","0.0-236.0","55","false","v1.1","","stimuli/reference_sequence.wav","","metronome","",""
"audio-multiple-response","248","856616","0.0-237.0","55","false","v1.1","","stimuli/sequence_2_599_0.wav","","tones","",""
"html-slider-response","249","860924","0.0-238.0","55","false","v1.1","4306.985000002896","How fast was the repeating tone relative to the metronome?","","response","","100"
"audio-multiple-response","250","864674","0.0-239.0","55","false","v1.1","","stimuli/reference_sequence.wav","","metronome","",""
"audio-multiple-response","251","868377","0.0-240.0","55","false","v1.1","","stimuli/sequence_7_463_2.wav","","tones","",""
"html-slider-response","252","870035","0.0-241.0","55","false","v1.1","1657.3649999990594","How fast was the repeating tone relative to the metronome?","","response","","50"
"audio-multiple-response","253","873788","0.0-242.0","55","false","v1.1","","stimuli/reference_sequence.wav","","metronome","",""
"audio-multiple-response","254","878252","0.0-243.0","55","false","v1.1","","stimuli/sequence_2_652_2.wav","","tones","",""
"html-slider-response","255","879328","0.0-244.0","55","false","v1.1","1074.9799999975367","How fast was the repeating tone relative to the metronome?","","response","","50"
"audio-multiple-response","256","883082","0.0-245.0","55","false","v1.1","","stimuli/reference_sequence.wav","","metronome","",""
"audio-multiple-response","257","886373","0.0-246.0","55","false","v1.1","","stimuli/sequence_6_358_1.wav","","tones","",""
"html-slider-response","258","887815","0.0-247.0","55","false","v1.1","1441.2049999955343","How fast was the repeating tone relative to the metronome?","","response","","50"
"audio-multiple-response","259","891569","0.0-248.0","55","false","v1.1","","stimuli/reference_sequence.wav","","metronome","",""
"audio-multiple-response","260","895127","0.0-249.0","55","false","v1.1","","stimuli/sequence_2_425_0.wav","","tones","",""
"html-slider-response","261","902887","0.0-250.0","55","false","v1.1","7758.144999999786","How fast was the repeating tone relative to the metronome?","","response","","50"
"audio-multiple-response","262","906645","0.0-251.0","55","false","v1.1","","stimuli/reference_sequence.wav","","metronome","",""
"audio-multiple-response","263","911875","0.0-252.0","55","false","v1.1","","stimuli/sequence_6_843_2.wav","","tones","",""
"html-slider-response","264","912958","0.0-253.0","55","false","v1.1","1081.4350000000559","How fast was the repeating tone relative to the metronome?","","response","","50"
"audio-multiple-response","265","916711","0.0-254.0","55","false","v1.1","","stimuli/reference_sequence.wav","","metronome","",""
"audio-multiple-response","266","920769","0.0-255.0","55","false","v1.1","","stimuli/sequence_7_550_0.wav","","tones","",""
"html-slider-response","267","922077","0.0-256.0","55","false","v1.1","1307.0050000024494","How fast was the repeating tone relative to the metronome?","","response","","50"
"audio-multiple-response","268","925825","0.0-257.0","55","false","v1.1","","stimuli/reference_sequence.wav","","metronome","",""
"audio-multiple-response","269","930283","0.0-258.0","55","false","v1.1","","stimuli/sequence_3_652_1.wav","","tones","",""
"html-slider-response","270","931543","0.0-259.0","55","false","v1.1","1258.3250000025146","How fast was the repeating tone relative to the metronome?","","response","","50"
"audio-multiple-response","271","935293","0.0-260.0","55","false","v1.1","","stimuli/reference_sequence.wav","","metronome","",""
"audio-multiple-response","272","938469","0.0-261.0","55","false","v1.1","","stimuli/sequence_4_329_2.wav","","tones","",""
"html-slider-response","273","939189","0.0-262.0","55","false","v1.1","718.8849999947706","How fast was the repeating tone relative to the metronome?","","response","","50"
"audio-multiple-response","274","942945","0.0-263.0","55","false","v1.1","","stimuli/reference_sequence.wav","","metronome","",""
"audio-multiple-response","275","947635","0.0-264.0","55","false","v1.1","","stimuli/sequence_7_710_0.wav","","tones","",""
"html-slider-response","276","949122","0.0-265.0","55","false","v1.1","1485.5549999993527","How fast was the repeating tone relative to the metronome?","","response","","50"
"audio-multiple-response","277","952877","0.0-266.0","55","false","v1.1","","stimuli/reference_sequence.wav","","metronome","",""
"audio-multiple-response","278","956436","0.0-267.0","55","false","v1.1","","stimuli/sequence_6_425_1.wav","","tones","",""
"html-slider-response","279","957430","0.0-268.0","55","false","v1.1","993.2199999967124","How fast was the repeating tone relative to the metronome?","","response","","50"
"audio-multiple-response","280","961184","0.0-269.0","55","false","v1.1","","stimuli/reference_sequence.wav","","metronome","",""
"audio-multiple-response","281","964250","0.0-270.0","55","false","v1.1","","stimuli/sequence_7_302_1.wav","","tones","",""
"html-slider-response","282","966514","0.0-271.0","55","false","v1.1","2263.470000005327","How fast was the repeating tone relative to the metronome?","","response","","100"
"audio-multiple-response","283","970269","0.0-272.0","55","false","v1.1","","stimuli/reference_sequence.wav","","metronome","",""
"audio-multiple-response","284","975500","0.0-273.0","55","false","v1.1","","stimuli/sequence_3_843_1.wav","","tones","",""
"html-slider-response","285","977472","0.0-274.0","55","false","v1.1","1971.1499999975786","How fast was the repeating tone relative to the metronome?","","response","","50"
"audio-multiple-response","286","981224","0.0-275.0","55","false","v1.1","","stimuli/reference_sequence.wav","","metronome","",""
"audio-multiple-response","287","984782","0.0-276.0","55","false","v1.1","","stimuli/sequence_5_425_2.wav","","tones","",""
"html-slider-response","288","988068","0.0-277.0","55","false","v1.1","3284.599999998929","How fast was the repeating tone relative to the metronome?","","response","","50"
"audio-multiple-response","289","991818","0.0-278.0","55","false","v1.1","","stimuli/reference_sequence.wav","","metronome","",""
"audio-multiple-response","290","996073","0.0-279.0","55","false","v1.1","","stimuli/sequence_6_599_1.wav","","tones","",""
"html-slider-response","291","996730","0.0-280.0","55","false","v1.1","656.2100000010105","How fast was the repeating tone relative to the metronome?","","response","","50"
"audio-multiple-response","292","1000480","0.0-281.0","55","false","v1.1","","stimuli/reference_sequence.wav","","metronome","",""
"audio-multiple-response","293","1005704","0.0-282.0","55","false","v1.1","","stimuli/sequence_5_843_0.wav","","tones","",""
"html-slider-response","294","1006324","0.0-283.0","55","false","v1.1","618.6899999956368","How fast was the repeating tone relative to the metronome?","","response","","50"
"audio-multiple-response","295","1010081","0.0-284.0","55","false","v1.1","","stimuli/reference_sequence.wav","","metronome","",""
"audio-multiple-response","296","1014778","0.0-285.0","55","false","v1.1","","stimuli/sequence_6_710_2.wav","","tones","",""
"html-slider-response","297","1026328","0.0-286.0","55","false","v1.1","11549.34499999939","How fast was the repeating tone relative to the metronome?","","response","","50"
"audio-multiple-response","298","1030086","0.0-287.0","55","false","v1.1","","stimuli/reference_sequence.wav","","metronome","",""
"audio-multiple-response","299","1035316","0.0-288.0","55","false","v1.1","","stimuli/sequence_4_843_0.wav","","tones","",""
"html-slider-response","300","1110392","0.0-289.0","55","false","v1.1","75072.61499999731","How fast was the repeating tone relative to the metronome?","","response","","50"
"html-button-response","301","1119850","0.0-290.0","55","false","v1.1","7951.454999994952","<h3>You have completed Block 3 of 3</h3><p>Thank you for participating! When you are ready, press the button below to submit your data and complete the study.</p><p>You will receive credit on SONA once we verify that you have completed our study.</p><p>If you have any questions or would like to learn more about our lab's work, please contact this study's organizer, Jesse Pazdera, at pazderaj@mcmaster.ca.</p><p><em>Have a great day!</em></p>","","ending","0",""
