experiment,subject,pitch,ioi,tempo,tempo_range,loudness,tap_condition,key_press,tap_times,true_score,response,rt,error,tapped,tap_type,block,trial,test_correct,test_incorrect,test_skipped,extreme_responses,pearsonr,intercept,slope,residual,illusory_tempo,cooks
IT2,1,4,710,84.50704225352112,2,0,False,,,31.580629700998873,27.0,4512.719999998808,-4.580629700998873,False,0,0,1,4,2,0,7.0,0.9169932056145607,48.940838660086015,44.6364155578125,-5.497345320497146,-12.315830587644424,0.00269763273570943
IT2,1,7,329,182.370820668693,5,1,False,,,87.06720173383901,90.0,4844.2550000036135,2.9327982661609866,False,0,0,2,4,2,0,7.0,0.9169932056145607,48.940838660086015,44.6364155578125,7.96822093677585,17.851390702408697,0.014412209435776015
IT2,1,6,710,84.50704225352112,2,2,False,,,31.580629700998873,31.0,2583.980000053998,-0.5806297009988732,False,0,0,3,4,2,0,7.0,0.9169932056145607,48.940838660086015,44.6364155578125,-1.4973453204971463,-3.354537549185159,0.0002438578507344728
IT2,1,4,358,167.5977653631285,5,0,False,,,80.97360155738828,83.0,4429.515000025276,2.026398442611722,False,0,0,4,4,2,0,7.0,0.9169932056145607,48.940838660086015,44.6364155578125,6.408150331160158,14.35632823800649,0.007539516395626441
IT2,1,5,550,109.0909090909091,3,1,False,,,50.0,50.0,582.8299999702722,0.0,False,0,0,5,4,2,0,7.0,0.9169932056145607,48.940838660086015,44.6364155578125,1.0591613399139845,2.3728637854940944,9.848767259637384e-05
IT2,1,3,302,198.67549668874173,5,0,False,,,93.24415345434716,79.0,1621.8649999937043,-14.244153454347156,False,0,0,6,4,2,0,7.0,0.9169932056145607,48.940838660086015,44.6364155578125,-8.54611874076707,-19.146068594370554,0.0106581133043842
IT2,1,2,425,141.1764705882353,4,2,False,,,68.5984388693479,48.0,4346.949999977369,-20.598438869347902,False,0,0,7,4,2,0,7.0,0.9169932056145607,48.940838660086015,44.6364155578125,-17.544191582061714,-39.30466047243132,0.023201449994048003
IT2,1,7,1000,60.0,1,1,False,,,6.875176187496734,0.0,2752.6850000140257,-6.875176187496734,False,0,0,8,4,2,0,7.0,0.9169932056145607,48.940838660086015,44.6364155578125,-10.442087529039142,-23.393651570240195,0.027230969559817544
IT2,1,3,710,84.50704225352112,2,0,False,,,31.580629700998873,32.0,3271.3000000221655,0.41937029900112677,False,0,0,9,4,2,0,7.0,0.9169932056145607,48.940838660086015,44.6364155578125,-0.4973453204971463,-1.1142142895703424,4.2709501673959164e-05
IT2,1,6,1000,60.0,1,1,False,,,6.875176187496734,24.0,3935.044999991078,17.124823812503266,False,0,0,10,4,2,0,7.0,0.9169932056145607,48.940838660086015,44.6364155578125,13.557912470960858,30.374106660515398,0.0339921647244749
IT2,1,2,710,84.50704225352112,2,2,False,,,31.580629700998873,33.0,2266.8849999899976,1.4193702990011268,False,0,0,11,4,2,0,7.0,0.9169932056145607,48.940838660086015,44.6364155578125,0.5026546795028537,1.126108970044474,6.479301486735787e-06
IT2,1,7,599,100.1669449081803,3,1,False,,,43.84378078116181,47.0,1542.2249999828637,3.1562192188381886,False,0,0,12,4,2,0,7.0,0.9169932056145607,48.940838660086015,44.6364155578125,3.554992526255049,7.964332444326022,0.0007815804570111631
IT2,1,2,843,71.17437722419929,1,0,False,,,19.194949373496982,9.0,1924.8549999902025,-10.194949373496982,False,0,0,13,4,2,0,7.0,0.9169932056145607,48.940838660086015,44.6364155578125,-12.440297839205197,-27.870288605707344,0.022457536879910773
IT2,1,7,425,141.1764705882353,4,1,False,,,68.5984388693479,75.0,1537.7999999909662,6.401561130652098,False,0,0,14,4,2,0,7.0,0.9169932056145607,48.940838660086015,44.6364155578125,9.455808417938286,21.184067537168723,0.008657607570357937
IT2,1,5,1000,60.0,1,0,False,,,6.875176187496734,6.0,2059.290000004694,-0.8751761874967343,False,0,0,15,4,2,0,7.0,0.9169932056145607,48.940838660086015,44.6364155578125,-4.442087529039142,-9.951712012551296,0.006032808482270379
IT2,1,4,463,129.58963282937364,4,1,False,,,62.42097125758927,57.0,2888.035000010859,-5.420971257589272,False,0,0,16,4,2,0,7.0,0.9169932056145607,48.940838660086015,44.6364155578125,-3.0293913537940114,-6.786815912380741,0.00039187906817042865
IT2,1,5,710,84.50704225352112,2,2,False,,,31.580629700998873,30.0,2363.4949999977835,-1.5806297009988732,False,0,0,17,4,2,0,7.0,0.9169932056145607,48.940838660086015,44.6364155578125,-2.4973453204971463,-5.594860808799975,0.0006099243486682765
IT2,1,2,550,109.0909090909091,3,2,False,,,50.0,47.0,2237.1550000389107,-3.0,False,0,0,18,4,2,0,7.0,0.9169932056145607,48.940838660086015,44.6364155578125,-1.9408386600860155,-4.348105993350355,0.0001523564098917535
IT2,1,5,302,198.67549668874173,5,1,False,,,93.24415345434716,83.0,1861.54000001261,-10.244153454347156,False,0,0,19,4,2,0,7.0,0.9169932056145607,48.940838660086015,44.6364155578125,-4.546118740767071,-10.184775555911289,0.002027292334369837
IT2,1,7,710,84.50704225352112,2,0,False,,,31.580629700998873,27.0,1554.550000000745,-4.580629700998873,False,0,0,20,4,2,0,7.0,0.9169932056145607,48.940838660086015,44.6364155578125,-5.497345320497146,-12.315830587644424,0.0026976327357094284
IT2,1,2,302,198.67549668874173,5,2,False,,,93.24415345434716,73.0,1002.985000028275,-20.244153454347156,False,0,0,21,4,2,0,7.0,0.9169932056145607,48.940838660086015,44.6364155578125,-14.54611874076707,-32.58800815205945,0.03631202827420447
IT2,1,6,390,153.84615384615384,4,1,False,,,74.79787473312055,87.0,1096.5950000099838,12.202125266879449,False,0,0,22,4,2,0,7.0,0.9169932056145607,48.940838660086015,44.6364155578125,15.921396509151023,35.66907492500118,0.02974321662016916
IT2,1,3,599,100.1669449081803,3,2,False,,,43.84378078116181,50.0,891.2600000039674,6.156219218838189,False,0,0,23,4,2,0,7.0,0.9169932056145607,48.940838660086015,44.6364155578125,6.554992526255049,14.68530222317047,0.002584361114574874
IT2,1,6,329,182.370820668693,5,0,False,,,87.06720173383901,50.0,6859.735000005458,-37.06720173383901,False,0,0,24,4,2,0,7.0,0.9169932056145607,48.940838660086015,44.6364155578125,-32.03177906322415,-71.76153968218397,0.15914890232554746
IT2,1,5,425,141.1764705882353,4,1,False,,,68.5984388693479,67.0,2160.6899999896996,-1.598438869347902,False,0,0,25,4,2,0,7.0,0.9169932056145607,48.940838660086015,44.6364155578125,1.455808417938286,3.2614814602501903,0.00041392245235903006
IT2,1,6,550,109.0909090909091,3,2,False,,,50.0,50.0,754.3799999984913,0.0,False,0,0,26,4,2,0,7.0,0.9169932056145607,48.940838660086015,44.6364155578125,1.0591613399139845,2.3728637854940944,9.848767259637384e-05
IT2,1,4,918,65.359477124183,1,0,False,,,13.046873249910696,14.0,2016.364999988582,0.9531267500893037,False,0,0,27,4,2,0,7.0,0.9169932056145607,48.940838660086015,44.6364155578125,-1.9517362245359493,-4.372520060460693,0.0012077957745962435
IT2,1,3,425,141.1764705882353,4,2,False,,,68.5984388693479,58.0,2534.990000014659,-10.598438869347902,False,0,0,28,4,2,0,7.0,0.9169932056145607,48.940838660086015,44.6364155578125,-7.544191582061714,-16.901427876283158,0.0037753337972053166
IT2,1,4,504,119.04761904761905,3,0,False,,,56.30039424560527,50.0,642.5000000162981,-6.300394245605268,False,0,0,29,4,2,0,7.0,0.9169932056145607,48.940838660086015,44.6364155578125,-4.5653789745837585,-10.227924705716434,0.0009857194830872745
IT2,1,3,1000,60.0,1,2,False,,,6.875176187496734,20.0,1952.9900000197813,13.124823812503266,False,0,0,30,4,2,0,7.0,0.9169932056145607,48.940838660086015,44.6364155578125,9.557912470960858,21.412813622056134,0.015910884146134598
IT2,1,4,652,92.02453987730061,2,1,False,,,37.727982709047225,37.0,2331.145000003744,-0.7279827090472253,False,0,1,31,4,2,0,7.0,0.9169932056145607,48.940838660086015,44.6364155578125,-0.9852613894534414,-2.207304007592957,7.278945677459633e-05
IT2,1,7,918,65.359477124183,1,0,False,,,13.046873249910696,13.0,1418.2350000482984,-0.0468732499106963,False,0,1,32,4,2,0,7.0,0.9169932056145607,48.940838660086015,44.6364155578125,-2.9517362245359493,-6.612843320075509,0.002278498844056598
IT2,1,6,652,92.02453987730061,2,1,False,,,37.727982709047225,36.0,1896.805000025779,-1.7279827090472253,False,0,1,33,4,2,0,7.0,0.9169932056145607,48.940838660086015,44.6364155578125,-1.9852613894534414,-4.447627267207774,0.0002798935350920773
IT2,1,3,918,65.359477124183,1,0,False,,,13.046873249910696,22.0,2235.3499999735504,8.953126750089304,False,0,1,34,4,2,0,7.0,0.9169932056145607,48.940838660086015,44.6364155578125,6.048263775464051,13.550066016457837,0.004773260058997654
IT2,1,7,652,92.02453987730061,2,2,False,,,37.727982709047225,38.0,2741.5000000037253,0.2720172909527747,False,0,1,35,4,2,0,7.0,0.9169932056145607,48.940838660086015,44.6364155578125,0.014738610546558562,0.03301925202185939,1.111078860568377e-07
IT2,1,4,329,182.370820668693,5,2,False,,,87.06720173383901,93.0,2026.045000005979,5.932798266160987,False,0,1,36,4,2,0,7.0,0.9169932056145607,48.940838660086015,44.6364155578125,10.96822093677585,24.572360481253146,0.025272980584426927
IT2,1,3,774,77.51937984496124,2,1,False,,,25.354902613380577,29.0,3797.3149999743327,3.6450973866194225,False,0,1,37,4,2,0,7.0,0.9169932056145607,48.940838660086015,44.6364155578125,2.060537508152052,4.616270106821797,0.00029088910484543085
IT2,1,7,550,109.0909090909091,3,2,False,,,50.0,41.0,8407.944999984466,-9.0,False,0,1,38,4,2,0,7.0,0.9169932056145607,48.940838660086015,44.6364155578125,-7.9408386600860155,-17.790045551039256,0.003235108331965589
IT2,1,2,652,92.02453987730061,2,0,False,,,37.727982709047225,31.0,20187.56500002928,-6.727982709047225,False,0,1,39,4,2,0,7.0,0.9169932056145607,48.940838660086015,44.6364155578125,-6.985261389453441,-15.649243565281857,0.003331799868113604
IT2,1,4,550,109.0909090909091,3,2,False,,,50.0,37.0,7032.250000047497,-13.0,False,0,1,40,4,2,0,7.0,0.9169932056145607,48.940838660086015,44.6364155578125,-11.940838660086015,-26.75133858949852,0.007493990685557832
IT2,1,2,918,65.359477124183,1,2,False,,,13.046873249910696,12.0,2052.235000010114,-1.0468732499106963,False,0,1,41,4,2,0,7.0,0.9169932056145607,48.940838660086015,44.6364155578125,-3.9517362245359493,-8.853166579690326,0.0036861766035192933
IT2,1,5,504,119.04761904761905,3,0,False,,,56.30039424560527,71.0,1993.8550000078976,14.699605754394732,False,0,1,42,4,2,0,7.0,0.9169932056145607,48.940838660086015,44.6364155578125,16.43462102541624,36.818863746194715,0.016582398948387173
IT2,1,2,358,167.5977653631285,5,1,False,,,80.97360155738828,84.0,1746.8099999823608,3.026398442611722,False,0,1,43,4,2,0,7.0,0.9169932056145607,48.940838660086015,44.6364155578125,7.408150331160158,16.596651497621306,0.009675864645663425
IT2,1,6,843,71.17437722419929,1,2,False,,,19.194949373496982,24.0,2805.2199999801815,4.805050626503018,False,0,1,44,4,2,0,7.0,0.9169932056145607,48.940838660086015,44.6364155578125,2.559702160794803,5.734560288514902,0.0005321546789427725
IT2,1,2,599,100.1669449081803,3,0,False,,,43.84378078116181,38.0,1554.6999999787658,-5.843780781161811,False,0,1,45,4,2,0,7.0,0.9169932056145607,48.940838660086015,44.6364155578125,-5.445007473744951,-12.198576892207326,0.0016550897192335258
IT2,1,5,463,129.58963282937364,4,0,False,,,62.42097125758927,73.0,1398.494999972172,10.579028742410728,False,0,1,46,4,2,0,7.0,0.9169932056145607,48.940838660086015,44.6364155578125,12.970608646205989,29.058356241456323,0.012410130952464906
IT2,1,6,504,119.04761904761905,3,0,False,,,56.30039424560527,55.0,2763.2050000247546,-1.3003942456052684,False,0,1,47,4,2,0,7.0,0.9169932056145607,48.940838660086015,44.6364155578125,0.4346210254162415,0.9736915923576481,4.541771588029077e-05
IT2,1,2,463,129.58963282937364,4,0,False,,,62.42097125758927,67.0,2441.110000014305,4.579028742410728,False,0,1,48,4,2,0,7.0,0.9169932056145607,48.940838660086015,44.6364155578125,6.970608646205989,15.616416683767422,0.0038690892627268624
IT2,1,3,504,119.04761904761905,3,1,False,,,56.30039424560527,67.0,2254.060000006575,10.699605754394732,False,0,1,49,4,2,0,7.0,0.9169932056145607,48.940838660086015,44.6364155578125,12.434621025416241,27.857570707735448,0.009655875513464847
IT2,1,6,463,129.58963282937364,4,2,False,,,62.42097125758927,73.0,2813.2499999483116,10.579028742410728,False,0,1,50,4,2,0,7.0,0.9169932056145607,48.940838660086015,44.6364155578125,12.970608646205989,29.058356241456323,0.012410130952464906
IT2,1,7,302,198.67549668874173,5,2,False,,,93.24415345434716,86.0,1139.2699999851175,-7.244153454347156,False,0,1,51,4,2,0,7.0,0.9169932056145607,48.940838660086015,44.6364155578125,-1.5461187407670707,-3.463805777066839,1.8658370386141706e-06
IT2,1,4,425,141.1764705882353,4,0,False,,,68.5984388693479,68.0,1284.7749999491498,-0.5984388693479019,False,0,1,52,4,2,0,7.0,0.9169932056145607,48.940838660086015,44.6364155578125,2.455808417938286,5.501804719865007,0.0008662857083300344
IT2,1,5,358,167.5977653631285,5,0,False,,,80.97360155738828,95.0,1345.0549999834038,14.026398442611722,False,0,1,53,4,2,0,7.0,0.9169932056145607,48.940838660086015,44.6364155578125,18.408150331160158,41.24020735338429,0.05074089660509422
IT2,1,7,390,153.84615384615384,4,2,False,,,74.79787473312055,82.0,1658.4949999814853,7.202125266879449,False,0,1,54,4,2,0,7.0,0.9169932056145607,48.940838660086015,44.6364155578125,10.921396509151023,24.467458626927097,0.014727124106765393
IT2,1,6,302,198.67549668874173,5,1,False,,,93.24415345434716,75.0,1925.8000000263564,-18.244153454347156,False,0,1,55,4,2,0,7.0,0.9169932056145607,48.940838660086015,44.6364155578125,-12.54611874076707,-28.107361632829818,0.026066365482291205
IT2,1,4,843,71.17437722419929,1,1,False,,,19.194949373496982,13.0,1761.7500000051223,-6.194949373496982,False,0,1,56,4,2,0,7.0,0.9169932056145607,48.940838660086015,44.6364155578125,-8.440297839205197,-18.90899556724808,0.010762933335157817
IT2,1,3,358,167.5977653631285,5,1,False,,,80.97360155738828,77.0,7120.2850000117905,-3.973601557388278,False,0,1,57,4,2,0,7.0,0.9169932056145607,48.940838660086015,44.6364155578125,0.408150331160158,0.9143886803175918,0.0003103545528212331
IT2,1,5,774,77.51937984496124,2,1,False,,,25.354902613380577,23.0,3611.6349999792874,-2.3549026133805775,False,0,1,58,4,2,0,7.0,0.9169932056145607,48.940838660086015,44.6364155578125,-3.939462491847948,-8.825669450867101,0.00195840004240863
IT2,1,3,390,153.84615384615384,4,1,False,,,74.79787473312055,77.0,2152.529999963008,2.202125266879449,False,0,1,59,4,2,0,7.0,0.9169932056145607,48.940838660086015,44.6364155578125,5.921396509151023,13.265842328853013,0.004934852857695357
IT2,1,5,918,65.359477124183,1,2,False,,,13.046873249910696,21.0,2695.9849999984726,7.953126750089304,False,0,1,60,4,2,0,7.0,0.9169932056145607,48.940838660086015,44.6364155578125,5.048263775464051,11.309742756843022,0.0031481656084392864
IT2,1,5,390,153.84615384615384,4,2,False,,,74.79787473312055,72.0,2588.5049999924377,-2.797874733120551,False,0,2,61,4,2,0,7.0,0.9169932056145607,48.940838660086015,44.6364155578125,0.9213965091510232,2.0642260307789333,0.0003664028729590465
IT2,1,4,1000,60.0,1,2,False,,,6.875176187496734,17.0,1503.8349999813363,10.124823812503266,False,0,2,62,4,2,0,7.0,0.9169932056145607,48.940838660086015,44.6364155578125,6.557912470960858,14.691843843211686,0.0068004575757399386
IT2,1,7,358,167.5977653631285,5,0,False,,,80.97360155738828,71.0,2640.475000021979,-9.973601557388278,False,0,2,63,4,2,0,7.0,0.9169932056145607,48.940838660086015,44.6364155578125,-5.591849668839842,-12.527550877371308,0.002662211551301814
IT2,1,6,774,77.51937984496124,2,0,False,,,25.354902613380577,27.0,1985.4899999918416,1.6450973866194225,False,0,2,64,4,2,0,7.0,0.9169932056145607,48.940838660086015,44.6364155578125,0.060537508152052055,0.13562358759216378,1.1430870380636883e-05
IT2,1,3,843,71.17437722419929,1,1,False,,,19.194949373496982,17.0,2874.6549999923445,-2.194949373496982,False,0,2,65,4,2,0,7.0,0.9169932056145607,48.940838660086015,44.6364155578125,-4.440297839205197,-9.947702528788813,0.0033213006688253403
IT2,1,6,358,167.5977653631285,5,2,False,,,80.97360155738828,74.0,2703.159999975469,-6.973601557388278,False,0,2,66,4,2,0,7.0,0.9169932056145607,48.940838660086015,44.6364155578125,-2.591849668839842,-5.806581098526857,0.0002886556969007998
IT2,1,7,463,129.58963282937364,4,0,False,,,62.42097125758927,63.0,1757.030000037048,0.5790287424107277,False,0,2,67,4,2,0,7.0,0.9169932056145607,48.940838660086015,44.6364155578125,2.9706086462059886,6.655123645308157,0.0008645262916532433
IT2,1,6,918,65.359477124183,1,0,False,,,13.046873249910696,7.0,1159.5150000066496,-6.046873249910696,False,0,2,68,4,2,0,7.0,0.9169932056145607,48.940838660086015,44.6364155578125,-8.95173622453595,-20.054782877764406,0.01577918575086787
IT2,1,2,774,77.51937984496124,2,1,False,,,25.354902613380577,28.0,1866.6200000443496,2.6450973866194225,False,0,2,69,4,2,0,7.0,0.9169932056145607,48.940838660086015,44.6364155578125,1.060537508152052,2.37594684720698,4.674808590646803e-05
IT2,1,3,550,109.0909090909091,3,0,False,,,50.0,40.0,2752.295000012964,-10.0,False,0,2,70,4,2,0,7.0,0.9169932056145607,48.940838660086015,44.6364155578125,-8.940838660086015,-20.03036881065407,0.004134550339947924
IT2,1,2,390,153.84615384615384,4,1,False,,,74.79787473312055,26.0,28770.674999977928,-48.79787473312055,False,0,2,71,4,2,0,7.0,0.9169932056145607,48.940838660086015,44.6364155578125,-45.07860349084898,-100.99064391150263,0.20343835673592345
IT2,1,7,774,77.51937984496124,2,1,False,,,25.354902613380577,31.0,3879.8599999863654,5.6450973866194225,False,0,2,72,4,2,0,7.0,0.9169932056145607,48.940838660086015,44.6364155578125,4.060537508152052,9.09691662605143,0.0014056425529627517
IT2,1,2,1000,60.0,1,1,False,,,6.875176187496734,26.0,3220.8100000279956,19.124823812503266,False,0,2,73,4,2,0,7.0,0.9169932056145607,48.940838660086015,44.6364155578125,15.557912470960858,34.85475317974503,0.045575967221279684
IT2,1,4,302,198.67549668874173,5,1,False,,,93.24415345434716,74.0,2599.114999989979,-19.244153454347156,False,0,2,74,4,2,0,7.0,0.9169932056145607,48.940838660086015,44.6364155578125,-13.54611874076707,-30.347684892444637,0.030977402153001193
IT2,1,2,504,119.04761904761905,3,1,False,,,56.30039424560527,56.0,4389.474999974482,-0.3003942456052684,False,0,2,75,4,2,0,7.0,0.9169932056145607,48.940838660086015,44.6364155578125,1.4346210254162415,3.2140148519724647,0.0002063921282883445
IT2,1,4,390,153.84615384615384,4,2,False,,,74.79787473312055,73.0,1533.9599999715574,-1.7978747331205511,False,0,2,76,4,2,0,7.0,0.9169932056145607,48.940838660086015,44.6364155578125,1.9213965091510232,4.30454929039375,0.0008621871687596104
IT2,1,2,329,182.370820668693,5,0,False,,,87.06720173383901,80.0,6305.27000001166,-7.067201733839013,False,0,2,77,4,2,0,7.0,0.9169932056145607,48.940838660086015,44.6364155578125,-2.0317790632241497,-4.551841893739465,9.400332011711869e-05
IT2,1,4,599,100.1669449081803,3,1,False,,,43.84378078116181,35.0,2462.0750000467524,-8.843780781161811,False,0,2,78,4,2,0,7.0,0.9169932056145607,48.940838660086015,44.6364155578125,-8.445007473744951,-18.919546671051776,0.004040209884945478
IT2,1,5,652,92.02453987730061,2,0,False,,,37.727982709047225,43.0,3363.825000007637,5.272017290952775,False,0,2,79,4,2,0,7.0,0.9169932056145607,48.940838660086015,44.6364155578125,5.014738610546559,11.234635550095943,0.001653105304877481
IT2,1,6,599,100.1669449081803,3,1,False,,,43.84378078116181,48.0,1941.5850000223145,4.156219218838189,False,0,2,80,4,2,0,7.0,0.9169932056145607,48.940838660086015,44.6364155578125,4.554992526255049,10.204655703940839,0.0012661767644414092
IT2,1,3,463,129.58963282937364,4,0,False,,,62.42097125758927,60.0,6818.169999984093,-2.4209712575892723,False,0,2,81,4,2,0,7.0,0.9169932056145607,48.940838660086015,44.6364155578125,-0.029391353794011366,-0.06584613353629185,2.3073094942693712e-05
IT2,1,5,599,100.1669449081803,3,2,False,,,43.84378078116181,61.0,4906.994999968447,17.15621921883819,False,0,2,82,4,2,0,7.0,0.9169932056145607,48.940838660086015,44.6364155578125,17.55499252625505,39.32885807893346,0.018152011397648094
IT2,1,7,843,71.17437722419929,1,2,False,,,19.194949373496982,27.0,1715.3849999886006,7.805050626503018,False,0,2,83,4,2,0,7.0,0.9169932056145607,48.940838660086015,44.6364155578125,5.559702160794803,12.455530067359351,0.003323966596083725
IT2,1,3,329,182.370820668693,5,2,False,,,87.06720173383901,82.0,5829.909999971278,-5.067201733839013,False,0,2,84,4,2,0,7.0,0.9169932056145607,48.940838660086015,44.6364155578125,-0.031779063224149695,-0.07119537450983239,0.0002641843118834726
IT2,1,4,774,77.51937984496124,2,2,False,,,25.354902613380577,25.0,4770.250000001397,-0.3549026133805775,False,0,2,85,4,2,0,7.0,0.9169932056145607,48.940838660086015,44.6364155578125,-1.939462491847948,-4.345022931637469,0.0005672678495683697
IT2,1,5,329,182.370820668693,5,2,False,,,87.06720173383901,100.0,3525.5949999555014,12.932798266160987,False,0,2,86,4,2,0,7.0,0.9169932056145607,48.940838660086015,44.6364155578125,17.96822093677585,40.254623298556865,0.06239866844350277
IT2,1,7,504,119.04761904761905,3,0,False,,,56.30039424560527,35.0,8772.919999959413,-21.30039424560527,False,0,2,87,4,2,0,7.0,0.9169932056145607,48.940838660086015,44.6364155578125,-19.56537897458376,-43.832773599938676,0.021258363077180754
IT2,1,5,843,71.17437722419929,1,1,False,,,19.194949373496982,27.0,2146.1550000240095,7.805050626503018,False,0,2,88,4,2,0,7.0,0.9169932056145607,48.940838660086015,44.6364155578125,5.559702160794803,12.455530067359351,0.003323966596083725
IT2,1,3,652,92.02453987730061,2,2,False,,,37.727982709047225,29.0,2757.709999976214,-8.727982709047225,False,0,2,89,4,2,0,7.0,0.9169932056145607,48.940838660086015,44.6364155578125,-8.985261389453441,-20.12989008451149,0.005493542507324804
IT2,1,6,425,141.1764705882353,4,0,False,,,68.5984388693479,76.0,2737.2549999854527,7.401561130652098,False,0,2,90,4,2,0,7.0,0.9169932056145607,48.940838660086015,44.6364155578125,10.455808417938286,23.424390796783538,0.010431336274966339
IT2,2,4,550,109.0909090909091,3,1,True,,,50.0,43.0,2671.1750000249594,-7.0,False,1,0,1,4,2,0,24.0,0.9353814895497371,48.764592000180656,55.57450017310498,-5.764592000180656,-10.372728467597453,0.0015230585082861047
IT2,2,7,918,65.359477124183,1,2,True,,,13.046873249910696,24.0,2740.6999999657273,10.953126750089304,False,1,0,2,4,2,0,24.0,0.9353814895497371,48.764592000180656,55.57450017310498,16.30843897921151,29.345183363617373,0.03332652439052738
IT2,2,5,504,119.04761904761905,3,1,True,,,56.30039424560527,50.0,885.355000034906,-6.300394245605268,False,1,0,3,4,2,0,24.0,0.9353814895497371,48.764592000180656,55.57450017310498,-5.767417222041047,-10.377812133400276,0.0015085091993802793
IT2,2,3,463,129.58963282937364,4,2,True,,,62.42097125758927,72.0,2873.265000001993,9.579028742410728,False,1,0,4,4,2,0,24.0,0.9353814895497371,48.764592000180656,55.57450017310498,9.429622613718806,16.96753472248452,0.005510590735607699
IT2,2,2,599,100.1669449081803,3,1,True,,,43.84378078116181,29.0,4143.784999963827,-14.843780781161811,False,1,0,5,4,2,0,24.0,0.9353814895497371,48.764592000180656,55.57450017310498,-12.922015879320753,-23.251699680736497,0.008386104553247948
IT2,2,3,329,182.370820668693,5,0,True,,,87.06720173383901,100.0,3032.069999957457,12.932798266160987,False,1,0,6,4,2,0,24.0,0.9353814895497371,48.764592000180656,55.57450017310498,10.035583816344271,18.057893071615865,0.017749986834634666
IT2,2,7,550,109.0909090909091,3,1,True,,,50.0,24.0,2155.8899999945424,-26.0,False,1,0,7,4,2,0,24.0,0.9353814895497371,48.764592000180656,55.57450017310498,-24.764592000180656,-44.561070136561234,0.02848597157220233
IT2,2,6,329,182.370820668693,5,0,True,,,87.06720173383901,100.0,2344.570000015665,12.932798266160987,False,1,0,8,4,2,0,24.0,0.9353814895497371,48.764592000180656,55.57450017310498,10.035583816344271,18.057893071615865,0.017749986834634666
IT2,2,5,843,71.17437722419929,1,2,True,,,19.194949373496982,0.0,2087.34500000719,-19.194949373496982,False,1,0,9,4,2,0,24.0,0.9353814895497371,48.764592000180656,55.57450017310498,-14.525086172678662,-26.136242570667346,0.02657373247398757
IT2,2,4,329,182.370820668693,5,2,True,"[74, 74]","[441, 969]",87.06720173383901,100.0,2753.3149999799207,12.932798266160987,True,2,0,10,4,2,0,24.0,0.9353814895497371,48.764592000180656,55.57450017310498,10.035583816344271,18.057893071615865,0.017749986834634666
IT2,2,6,843,71.17437722419929,1,1,True,,,19.194949373496982,0.0,2058.08500002604,-19.194949373496982,False,1,0,11,4,2,0,24.0,0.9353814895497371,48.764592000180656,55.57450017310498,-14.525086172678662,-26.136242570667346,0.02657373247398757
IT2,2,2,774,77.51937984496124,2,1,True,,,25.354902613380577,0.0,2111.3900000345893,-25.354902613380577,False,1,0,12,4,2,0,24.0,0.9353814895497371,48.764592000180656,55.57450017310498,-21.371812620603254,-38.45614905043455,0.04292158884113955
IT2,2,6,390,153.84615384615384,4,0,True,,,74.79787473312055,79.0,3007.5749999959953,4.202125266879449,False,1,0,13,4,2,0,24.0,0.9353814895497371,48.764592000180656,55.57450017310498,2.6728181268504727,4.80943259682967,0.0010477771939902095
IT2,2,7,358,167.5977653631285,5,2,True,,,80.97360155738828,67.0,2635.915000049863,-13.973601557388278,False,1,0,14,4,2,0,24.0,0.9353814895497371,48.764592000180656,55.57450017310498,-16.191440502435853,-29.134657895261874,0.026172571809062576
IT2,2,4,425,141.1764705882353,4,1,True,,,68.5984388693479,50.0,1028.5600000061095,-18.598438869347902,False,1,0,15,4,2,0,24.0,0.9353814895497371,48.764592000180656,55.57450017310498,-19.436570883461798,-34.973901380885536,0.024832437375787778
IT2,2,6,550,109.0909090909091,3,0,True,,,50.0,62.0,4666.885000013281,12.0,False,1,0,16,4,2,0,24.0,0.9353814895497371,48.764592000180656,55.57450017310498,13.235407999819344,23.815613201366332,0.00823104594975159
IT2,2,5,425,141.1764705882353,4,1,True,,,68.5984388693479,81.0,2624.980000022333,12.401561130652098,False,1,0,17,4,2,0,24.0,0.9353814895497371,48.764592000180656,55.57450017310498,11.563429116538202,20.807077131634323,0.010324692284113318
IT2,2,7,774,77.51937984496124,2,2,True,,,25.354902613380577,14.0,1855.7850000215694,-11.354902613380577,False,1,0,18,4,2,0,24.0,0.9353814895497371,48.764592000180656,55.57450017310498,-7.371812620603254,-13.264739399619124,0.005708951983632671
IT2,2,2,329,182.370820668693,5,2,True,,,87.06720173383901,100.0,3072.8899999521673,12.932798266160987,False,1,0,19,4,2,0,24.0,0.9353814895497371,48.764592000180656,55.57450017310498,10.035583816344271,18.057893071615865,0.017749986834634666
IT2,2,7,425,141.1764705882353,4,0,True,,,68.5984388693479,59.0,3219.249999965541,-9.598438869347902,False,1,0,20,4,2,0,24.0,0.9353814895497371,48.764592000180656,55.57450017310498,-10.436570883461798,-18.779423748218484,0.006778781533037052
IT2,2,6,652,92.02453987730061,2,0,True,,,37.727982709047225,21.0,2019.7749999933876,-16.727982709047225,False,1,0,21,4,2,0,24.0,0.9353814895497371,48.764592000180656,55.57450017310498,-14.124367458972607,-25.4151947655447,0.011847908838110209
IT2,2,3,550,109.0909090909091,3,0,True,,,50.0,50.0,784.0399999986403,0.0,False,1,0,22,4,2,0,24.0,0.9353814895497371,48.764592000180656,55.57450017310498,1.2354079998193441,2.222976357810257,7.70322160115252e-05
IT2,2,5,358,167.5977653631285,5,2,True,,,80.97360155738828,88.0,2224.6049999957904,7.026398442611722,False,1,0,23,4,2,0,24.0,0.9353814895497371,48.764592000180656,55.57450017310498,4.808559497564147,8.652456580961257,0.0037332153783804275
IT2,2,3,652,92.02453987730061,2,1,True,,,37.727982709047225,15.0,1579.4549999991432,-22.727982709047225,False,1,0,24,4,2,0,24.0,0.9353814895497371,48.764592000180656,55.57450017310498,-20.124367458972607,-36.21151318732274,0.023748471684685756
IT2,2,4,918,65.359477124183,1,0,True,,,13.046873249910696,0.0,2003.9949999772944,-13.046873249910696,False,1,0,25,4,2,0,24.0,0.9353814895497371,48.764592000180656,55.57450017310498,-7.691561020788491,-13.840090323494778,0.010829343709753966
IT2,2,5,652,92.02453987730061,2,1,True,,,37.727982709047225,21.0,2556.5000000060536,-16.727982709047225,False,1,0,26,4,2,0,24.0,0.9353814895497371,48.764592000180656,55.57450017310498,-14.124367458972607,-25.4151947655447,0.011847908838110209
IT2,2,3,1000,60.0,1,2,True,,,6.875176187496734,0.0,3870.890000020154,-6.875176187496734,False,1,0,27,4,2,0,24.0,0.9353814895497371,48.764592000180656,55.57450017310498,-0.8317814315189693,-1.4966961986668592,0.0007414915302887918
IT2,2,2,463,129.58963282937364,4,1,True,,,62.42097125758927,74.0,5073.4100000117905,11.579028742410728,False,1,0,28,4,2,0,24.0,0.9353814895497371,48.764592000180656,55.57450017310498,11.429622613718806,20.566307529743863,0.007978380895596958
IT2,2,4,774,77.51937984496124,2,0,True,,,25.354902613380577,0.0,12793.769999989308,-25.354902613380577,False,1,0,29,4,2,0,24.0,0.9353814895497371,48.764592000180656,55.57450017310498,-21.371812620603254,-38.45614905043455,0.04292158884113955
IT2,2,2,843,71.17437722419929,1,2,True,,,19.194949373496982,20.0,3605.2500000223517,0.805050626503018,False,1,0,30,4,2,0,24.0,0.9353814895497371,48.764592000180656,55.57450017310498,5.474913827321338,9.85148550192611,0.002412821450227275
IT2,2,6,918,65.359477124183,1,0,True,"[74, 74, 74, 74, 74, 74]","[348, 940, 1550, 2194, 2781, 3402]",13.046873249910696,14.0,2340.1450000237674,0.9531267500893037,True,2,1,31,4,2,0,24.0,0.9353814895497371,48.764592000180656,55.57450017310498,6.308438979211509,11.351319327320642,0.003985482140587035
IT2,2,4,599,100.1669449081803,3,0,True,"[74, 74, 74, 74]","[395, 952, 1498, 2038]",43.84378078116181,32.0,3683.2500000018626,-11.843780781161811,True,2,1,32,4,2,0,24.0,0.9353814895497371,48.764592000180656,55.57450017310498,-9.922015879320753,-17.853540469847477,0.004973787605049523
IT2,2,3,918,65.359477124183,1,1,True,"[74, 74, 74, 74, 74]","[279, 859, 1428, 1991, 3587]",13.046873249910696,0.0,3346.1349999997765,-13.046873249910696,True,2,1,33,4,2,0,24.0,0.9353814895497371,48.764592000180656,55.57450017310498,-7.691561020788491,-13.840090323494778,0.010829343709753966
IT2,2,7,329,182.370820668693,5,0,True,"[74, 74, 74]","[261, 766, 1289]",87.06720173383901,86.0,3261.6300000227056,-1.0672017338390134,True,2,1,34,4,2,0,24.0,0.9353814895497371,48.764592000180656,55.57450017310498,-3.964416183655729,-7.133516579199554,0.001148751418875193
IT2,2,2,390,153.84615384615384,4,2,True,"[74, 74, 74]","[290, 801, 1347]",74.79787473312055,78.0,2860.355000011623,3.202125266879449,True,2,1,35,4,2,0,24.0,0.9353814895497371,48.764592000180656,55.57450017310498,1.6728181268504727,3.0100461931999978,0.0005274013876949521
IT2,2,7,710,84.50704225352112,2,1,True,"[74, 74, 74, 74, 74]","[360, 958, 1562, 2154, 2815]",31.580629700998873,34.0,2633.434999966994,2.4193702990011268,True,2,1,36,4,2,0,24.0,0.9353814895497371,48.764592000180656,55.57450017310498,5.7083539572258,10.271534497737743,0.0019047404399862376
IT2,2,4,358,167.5977653631285,5,0,True,"[74, 74, 74]","[319, 842, 1382]",80.97360155738828,86.0,2773.8249999820255,5.026398442611722,True,2,1,37,4,2,0,24.0,0.9353814895497371,48.764592000180656,55.57450017310498,2.808559497564147,5.053683773701911,0.0015898905013152502
IT2,2,5,390,153.84615384615384,4,2,True,"[74, 74, 74]","[325, 853, 1422]",74.79787473312055,96.0,2032.370000029914,21.20212526687945,True,2,1,38,4,2,0,24.0,0.9353814895497371,48.764592000180656,55.57450017310498,19.672818126850473,35.39900145853411,0.03695629401230962
IT2,2,7,599,100.1669449081803,3,0,True,"[74, 74, 74, 74]","[511, 1074, 1596, 2154]",43.84378078116181,50.0,1205.3500000038184,6.156219218838189,True,2,1,39,4,2,0,24.0,0.9353814895497371,48.764592000180656,55.57450017310498,8.077984120679247,14.535414795486634,0.003111237195174735
IT2,2,5,774,77.51937984496124,2,0,True,"[74, 74, 74, 74, 74, 74]","[302, 900, 1492, 2003, 2525, 3065]",25.354902613380577,16.0,2730.7850000215694,-9.354902613380577,True,2,1,40,4,2,0,24.0,0.9353814895497371,48.764592000180656,55.57450017310498,-5.371812620603254,-9.665966592359778,0.003221139677514023
IT2,2,3,425,141.1764705882353,4,1,True,"[74, 74, 74]","[337, 865, 1422]",68.5984388693479,79.0,2450.124999973923,10.401561130652098,True,2,1,41,4,2,0,24.0,0.9353814895497371,48.764592000180656,55.57450017310498,9.563429116538202,17.208304324374975,0.007206027701006663
IT2,2,2,918,65.359477124183,1,1,True,"[74, 74, 74, 74, 74, 74]","[418, 1010, 1654, 2223, 2839, 3471]",13.046873249910696,16.0,2357.2949999943376,2.9531267500893037,True,2,1,42,4,2,0,24.0,0.9353814895497371,48.764592000180656,55.57450017310498,8.308438979211509,14.950092134579988,0.007571722937285418
IT2,2,3,774,77.51937984496124,2,0,True,"[74, 74, 74, 74, 74]","[528, 1051, 1643, 2223, 2879]",25.354902613380577,28.0,5563.900000008289,2.6450973866194225,True,2,1,43,4,2,0,24.0,0.9353814895497371,48.764592000180656,55.57450017310498,6.628187379396746,11.926670251196295,0.0031427288768094068
IT2,2,2,550,109.0909090909091,3,2,True,"[74, 74, 74, 74, 89]","[279, 853, 1451, 2055, 2241]",50.0,50.0,807.4199999682605,0.0,True,2,1,44,4,2,0,24.0,0.9353814895497371,48.764592000180656,55.57450017310498,1.2354079998193441,2.222976357810257,7.70322160115252e-05
IT2,2,3,358,167.5977653631285,5,1,True,"[74, 74, 74]","[174, 685, 1236]",80.97360155738828,82.0,2282.0799999753945,1.0263984426117219,True,2,1,45,4,2,0,24.0,0.9353814895497371,48.764592000180656,55.57450017310498,-1.191440502435853,-2.14386184081678,6.655342064085218e-06
IT2,2,2,710,84.50704225352112,2,0,True,"[74, 74, 74, 74, 74]","[302, 871, 1416, 1927, 2479]",31.580629700998873,24.0,2722.509999992326,-7.580629700998873,True,2,1,46,4,2,0,24.0,0.9353814895497371,48.764592000180656,55.57450017310498,-4.2916460427742,-7.722329538558985,0.001592294652911535
IT2,2,3,504,119.04761904761905,3,2,True,"[74, 74, 74, 74]","[99, 615, 1091, 1602]",56.30039424560527,61.0,4671.574999985751,4.699605754394732,True,2,1,47,4,2,0,24.0,0.9353814895497371,48.764592000180656,55.57450017310498,5.232582777958953,9.415438306526124,0.001470778481621853
IT2,2,6,358,167.5977653631285,5,2,True,"[74, 74, 74]","[180, 726, 1242]",80.97360155738828,84.0,2327.6549999718554,3.026398442611722,True,2,1,48,4,2,0,24.0,0.9353814895497371,48.764592000180656,55.57450017310498,0.808559497564147,1.454910966442566,0.00034770382254313656
IT2,2,4,710,84.50704225352112,2,2,True,"[74, 74, 74, 74, 74]","[313, 848, 1387, 1927, 2450]",31.580629700998873,29.0,3182.3200000217184,-2.5806297009988732,True,2,1,49,4,2,0,24.0,0.9353814895497371,48.764592000180656,55.57450017310498,0.7083539572257997,1.274602479589379,3.4964609694784373e-06
IT2,2,6,599,100.1669449081803,3,2,True,"[74, 74, 74, 74]","[325, 871, 1416, 1968]",43.84378078116181,36.0,2590.4350000200793,-7.843780781161811,True,2,1,50,4,2,0,24.0,0.9353814895497371,48.764592000180656,55.57450017310498,-5.922015879320753,-10.655994855328785,0.0018026502874009416
IT2,2,7,463,129.58963282937364,4,2,True,"[74, 74, 74, 74]","[75, 650, 1149, 1608]",62.42097125758927,80.0,2494.795000005979,17.579028742410728,True,2,1,51,4,2,0,24.0,0.9353814895497371,48.764592000180656,55.57450017310498,17.429622613718806,31.3626259515219,0.018113679875276102
IT2,2,6,710,84.50704225352112,2,1,True,"[74, 74, 74, 74, 74, 74]","[215, 708, 1225, 1736, 2241, 2711]",31.580629700998873,31.0,4404.52500001993,-0.5806297009988732,True,2,1,52,4,2,0,24.0,0.9353814895497371,48.764592000180656,55.57450017310498,2.7083539572257997,4.873375286848725,0.0003451889920611242
IT2,2,2,358,167.5977653631285,5,1,True,"[74, 74, 74]","[197, 714, 1219]",80.97360155738828,73.0,1951.4450000133365,-7.973601557388278,True,2,1,53,4,2,0,24.0,0.9353814895497371,48.764592000180656,55.57450017310498,-10.191440502435853,-18.338339473483835,0.009623522383785006
IT2,2,5,550,109.0909090909091,3,2,True,"[74, 74, 74, 74]","[337, 900, 1434, 2142]",50.0,50.0,1563.4900000295602,0.0,True,2,1,54,4,2,0,24.0,0.9353814895497371,48.764592000180656,55.57450017310498,1.2354079998193441,2.222976357810257,7.70322160115252e-05
IT2,2,6,425,141.1764705882353,4,1,True,"[74, 74, 74]","[383, 964, 1562]",68.5984388693479,75.0,2624.9749999842606,6.401561130652098,True,2,1,55,4,2,0,24.0,0.9353814895497371,48.764592000180656,55.57450017310498,5.563429116538202,10.010758709856283,0.002646483970962277
IT2,2,5,1000,60.0,1,1,True,"[74, 74, 74, 74, 74, 74, 74]","[313, 894, 1445, 1980, 2543, 3053, 3599]",6.875176187496734,8.0,2246.0899999714456,1.1248238125032657,True,2,1,56,4,2,0,24.0,0.9353814895497371,48.764592000180656,55.57450017310498,7.168218568481031,12.898395030370525,0.006387361777580771
IT2,2,4,463,129.58963282937364,4,0,True,"[74, 74, 74]","[348, 894, 1445]",62.42097125758927,50.0,851.555000001099,-12.420971257589272,True,2,1,57,4,2,0,24.0,0.9353814895497371,48.764592000180656,55.57450017310498,-12.570377386281194,-22.618966157368284,0.00841611247255092
IT2,2,7,1000,60.0,1,1,True,"[74, 74, 74, 74, 74, 74, 74]","[325, 882, 1451, 1991, 2589, 3187, 3733]",6.875176187496734,6.0,3118.5000000405125,-0.8751761874967343,True,2,1,58,4,2,0,24.0,0.9353814895497371,48.764592000180656,55.57450017310498,5.168218568481031,9.299622223111177,0.002823130941885979
IT2,2,5,302,198.67549668874173,5,1,True,,,93.24415345434716,87.0,4359.140000015032,-6.244153454347156,False,1,1,59,4,2,0,24.0,0.9353814895497371,48.764592000180656,55.57450017310498,-9.83003627286854,-17.688033616586154,0.013031572167970146
IT2,2,4,843,71.17437722419929,1,1,True,"[74, 74, 74, 74, 74, 74]","[319, 842, 1376, 1933, 2479, 3077]",19.194949373496982,11.0,2072.020000021439,-8.194949373496982,True,2,1,60,4,2,0,24.0,0.9353814895497371,48.764592000180656,55.57450017310498,-3.5250861726786624,-6.342992130740946,0.002147420517481977
IT2,2,4,302,198.67549668874173,5,1,True,"[74, 74]","[308, 842]",93.24415345434716,100.0,2788.6450000223704,6.755846545652844,True,2,2,61,4,2,0,24.0,0.9353814895497371,48.764592000180656,55.57450017310498,3.16996372713146,5.703989630599591,0.0035891264815408395
IT2,2,7,843,71.17437722419929,1,0,True,"[74, 74, 74, 74]","[296, 836, 1405, 1997]",19.194949373496982,26.0,2344.9149999651127,6.805050626503018,True,2,2,62,4,2,0,24.0,0.9353814895497371,48.764592000180656,55.57450017310498,11.474913827321338,20.647803923704146,0.01271503803578847
IT2,2,3,302,198.67549668874173,5,2,True,"[74, 74]","[406, 969]",93.24415345434716,73.0,2262.230000051204,-20.244153454347156,True,2,2,63,4,2,0,24.0,0.9353814895497371,48.764592000180656,55.57450017310498,-23.83003627286854,-42.87944326740158,0.09096905975530664
IT2,2,2,652,92.02453987730061,2,2,True,"[74, 74, 74, 74, 74]","[348, 882, 1440, 1997, 2554]",37.727982709047225,50.0,1098.1299999984913,12.272017290952775,True,2,2,64,4,2,0,24.0,0.9353814895497371,48.764592000180656,55.57450017310498,14.875632541027393,26.767010939715814,0.012077015746622314
IT2,2,6,504,119.04761904761905,3,1,True,"[74, 74, 74, 74]","[331, 935, 1480, 2026]",56.30039424560527,50.0,848.6350000021048,-6.300394245605268,True,2,2,65,4,2,0,24.0,0.9353814895497371,48.764592000180656,55.57450017310498,-5.767417222041047,-10.377812133400276,0.0015085091993802793
IT2,2,3,710,84.50704225352112,2,2,True,"[74, 74, 74, 74, 74]","[232, 789, 1329, 1933, 2444]",31.580629700998873,31.0,2102.3200000054203,-0.5806297009988732,True,2,2,66,4,2,0,24.0,0.9353814895497371,48.764592000180656,55.57450017310498,2.7083539572257997,4.873375286848725,0.0003451889920611242
IT2,2,7,302,198.67549668874173,5,1,True,"[74, 74]","[261, 824]",93.24415345434716,91.0,2684.3099999823608,-2.244153454347156,True,2,2,67,4,2,0,24.0,0.9353814895497371,48.764592000180656,55.57450017310498,-5.83003627286854,-10.490488002067464,0.003672042366831722
IT2,2,2,1000,60.0,1,0,True,"[74, 74, 74, 74, 74, 74, 74]","[401, 998, 1585, 2136, 2682, 3262, 3907]",6.875176187496734,16.0,2662.705000024289,9.124823812503266,True,2,2,68,4,2,0,24.0,0.9353814895497371,48.764592000180656,55.57450017310498,15.16821856848103,27.293486259407906,0.034996040279505244
IT2,2,7,390,153.84615384615384,4,1,True,"[74, 74, 74]","[447, 1039, 1567]",74.79787473312055,86.0,2924.3350000469945,11.202125266879449,True,2,2,69,4,2,0,24.0,0.9353814895497371,48.764592000180656,55.57450017310498,9.672818126850473,17.40513742223738,0.009642954159079238
IT2,2,5,329,182.370820668693,5,0,True,"[74, 74]","[389, 964]",87.06720173383901,77.0,2421.0750000202097,-10.067201733839013,True,2,2,70,4,2,0,24.0,0.9353814895497371,48.764592000180656,55.57450017310498,-12.964416183655729,-23.32799421186661,0.01997388841006342
IT2,2,6,774,77.51937984496124,2,2,True,"[74, 74, 74, 74, 74]","[447, 1010, 1573, 2194, 2757]",25.354902613380577,23.0,2270.3350000083447,-2.3549026133805775,True,2,2,71,4,2,0,24.0,0.9353814895497371,48.764592000180656,55.57450017310498,1.6281873793967456,2.9297382330479316,8.197024460148326e-05
IT2,2,5,599,100.1669449081803,3,0,True,"[74, 74, 74, 74]","[447, 1022, 1579, 2130]",43.84378078116181,54.0,1918.9450000412762,10.156219218838189,True,2,2,72,4,2,0,24.0,0.9353814895497371,48.764592000180656,55.57450017310498,12.077984120679247,21.732960410005326,0.00703013846012263
IT2,2,4,390,153.84615384615384,4,2,True,"[74, 74, 74]","[383, 911, 1486]",74.79787473312055,80.0,3079.9450000049546,5.202125266879449,True,2,2,73,4,2,0,24.0,0.9353814895497371,48.764592000180656,55.57450017310498,3.6728181268504727,6.608819000459344,0.0017450296546076892
IT2,2,3,843,71.17437722419929,1,0,True,"[74, 74, 74, 74, 74, 74]","[430, 981, 1527, 2032, 2635, 3164]",19.194949373496982,20.0,2201.130000001285,0.805050626503018,True,2,2,74,4,2,0,24.0,0.9353814895497371,48.764592000180656,55.57450017310498,5.474913827321338,9.85148550192611,0.002412821450227275
IT2,2,4,652,92.02453987730061,2,1,True,"[74, 74, 74, 74, 74]","[406, 998, 1509, 2026, 2566]",37.727982709047225,22.0,2007.1849999949336,-15.727982709047225,True,2,2,75,4,2,0,24.0,0.9353814895497371,48.764592000180656,55.57450017310498,-13.124367458972607,-23.61580836191503,0.010262747172878381
IT2,2,3,599,100.1669449081803,3,1,True,"[74, 74, 74, 74, 74]","[17, 575, 1097, 1672, 2188]",43.84378078116181,50.0,1013.5000000009313,6.156219218838189,True,2,2,76,4,2,0,24.0,0.9353814895497371,48.764592000180656,55.57450017310498,8.077984120679247,14.535414795486634,0.003111237195174735
IT2,2,4,1000,60.0,1,2,True,"[74, 74, 74, 74, 74, 74, 74]","[395, 981, 1550, 2084, 2635, 3193, 3767]",6.875176187496734,20.0,2568.2149999774992,13.124823812503266,True,2,2,77,4,2,0,24.0,0.9353814895497371,48.764592000180656,55.57450017310498,19.16821856848103,34.491031873926595,0.057911432625954655
IT2,2,2,425,141.1764705882353,4,0,True,"[74, 74, 74]","[389, 952, 1440]",68.5984388693479,77.0,3313.0050000036135,8.401561130652098,True,2,2,78,4,2,0,24.0,0.9353814895497371,48.764592000180656,55.57450017310498,7.563429116538202,13.60953151711563,0.0046466249299563145
IT2,2,6,1000,60.0,1,2,True,"[74, 74, 74, 74, 74, 74, 74, 74]","[255, 784, 1312, 1834, 2357, 2862, 3419, 3947]",6.875176187496734,15.0,1914.0999999945052,8.124823812503266,True,2,2,79,4,2,0,24.0,0.9353814895497371,48.764592000180656,55.57450017310498,14.16821856848103,25.494099855778234,0.030164176890339473
IT2,2,4,504,119.04761904761905,3,2,True,"[74, 74, 74, 74]","[99, 627, 1120, 1614]",56.30039424560527,50.0,859.1299999970943,-6.300394245605268,True,2,2,80,4,2,0,24.0,0.9353814895497371,48.764592000180656,55.57450017310498,-5.767417222041047,-10.377812133400276,0.0015085091993802793
IT2,2,3,390,153.84615384615384,4,0,True,"[74, 74, 74]","[337, 842, 1364]",74.79787473312055,84.0,2770.58999997098,9.202125266879449,True,2,2,81,4,2,0,24.0,0.9353814895497371,48.764592000180656,55.57450017310498,7.672818126850473,13.806364614978033,0.006302806040299833
IT2,2,7,504,119.04761904761905,3,2,True,"[74, 74, 74, 74]","[255, 789, 1277, 1829]",56.30039424560527,69.0,2953.6100000259466,12.699605754394732,True,2,2,82,4,2,0,24.0,0.9353814895497371,48.764592000180656,55.57450017310498,13.232582777958953,23.810529535563507,0.00892819034085967
IT2,2,5,918,65.359477124183,1,0,True,"[74, 74, 74, 74, 74, 74]","[302, 842, 1387, 1910, 2415, 3419]",13.046873249910696,15.0,2089.0200000139885,1.9531267500893037,True,2,2,83,4,2,0,24.0,0.9353814895497371,48.764592000180656,55.57450017310498,7.308438979211509,13.150705730950316,0.00563597956060562
IT2,2,6,302,198.67549668874173,5,1,True,"[74, 74]","[244, 784]",93.24415345434716,88.0,2715.864999976475,-5.244153454347156,True,2,2,84,4,2,0,24.0,0.9353814895497371,48.764592000180656,55.57450017310498,-8.83003627286854,-15.888647212956483,0.010153842892883732
IT2,2,5,710,84.50704225352112,2,2,True,"[74, 74, 74, 74, 74]","[273, 830, 1353, 1881, 2403]",31.580629700998873,24.0,2253.480000013951,-7.580629700998873,True,2,2,85,4,2,0,24.0,0.9353814895497371,48.764592000180656,55.57450017310498,-4.2916460427742,-7.722329538558985,0.001592294652911535
IT2,2,2,504,119.04761904761905,3,0,True,"[74, 74, 74, 74]","[163, 708, 1248, 1811]",56.30039424560527,50.0,1053.7550000008196,-6.300394245605268,True,2,2,86,4,2,0,24.0,0.9353814895497371,48.764592000180656,55.57450017310498,-5.767417222041047,-10.377812133400276,0.0015085091993802793
IT2,2,5,463,129.58963282937364,4,0,True,"[74, 74, 74]","[244, 795, 1329]",62.42097125758927,76.0,2443.615000054706,13.579028742410728,True,2,2,87,4,2,0,24.0,0.9353814895497371,48.764592000180656,55.57450017310498,13.429622613718806,24.165080337003207,0.01090149247220478
IT2,2,2,302,198.67549668874173,5,0,True,"[74, 74]","[435, 975]",93.24415345434716,80.0,2612.444999977015,-13.244153454347156,True,2,2,88,4,2,0,24.0,0.9353814895497371,48.764592000180656,55.57450017310498,-16.83003627286854,-30.28373844199386,0.0432154844898755
IT2,2,6,463,129.58963282937364,4,2,True,"[74, 74, 74, 74]","[174, 755, 1283, 1811]",62.42097125758927,77.0,3581.594999996014,14.579028742410728,True,2,2,89,4,2,0,24.0,0.9353814895497371,48.764592000180656,55.57450017310498,14.429622613718806,25.96446674063288,0.012533793791740648
IT2,2,7,652,92.02453987730061,2,0,True,"[74, 74, 74, 74, 74]","[296, 853, 1393, 1933, 2490]",37.727982709047225,22.0,2292.53500001505,-15.727982709047225,True,2,2,90,4,2,0,24.0,0.9353814895497371,48.764592000180656,55.57450017310498,-13.124367458972607,-23.61580836191503,0.010262747172878381
IT2,4,2,774,77.51937984496124,2,0,True,"[74, 74, 74, 74]","[459, 911, 1707, 2403]",25.354902613380577,24.0,16617.579999998212,-1.3549026133805775,True,2,0,1,0,2,4,12.0,0.9338137965259741,51.68528360745418,55.40187053045635,-0.37759371497463334,-0.6815540907902321,0.00017661884369478946
IT2,4,6,358,167.5977653631285,5,0,True,"[74, 74, 74]","[464, 848, 1225]",80.97360155738828,76.0,2349.3999999992084,-4.973601557388278,True,2,0,2,0,2,4,12.0,0.9338137965259741,51.68528360745418,55.40187053045635,-10.005192874341517,-18.059305179671348,0.009059047642428446
IT2,4,4,843,71.17437722419929,1,1,True,"[74, 74, 74, 74]","[424, 749, 1858, 2630]",19.194949373496982,6.0,3091.1699999996927,-13.194949373496982,True,2,0,3,0,2,4,12.0,0.9338137965259741,51.68528360745418,55.40187053045635,-11.552135077580715,-20.851525349184918,0.018388107820930394
IT2,4,3,504,119.04761904761905,3,0,True,"[74, 74, 74, 74]","[354, 807, 1289, 1718]",56.30039424560527,50.0,1733.6149999974295,-6.300394245605268,True,2,0,4,0,2,4,12.0,0.9338137965259741,51.68528360745418,55.40187053045635,-8.666356133171284,-15.64271395567246,0.003592051344617291
IT2,4,6,843,71.17437722419929,1,1,True,"[74, 74, 74, 74]","[418, 906, 1916, 2769]",19.194949373496982,29.0,4340.839999997173,9.805050626503018,True,2,0,5,0,2,4,12.0,0.9338137965259741,51.68528360745418,55.40187053045635,11.447864922419285,20.66331842735525,0.011597246562213545
IT2,4,2,425,141.1764705882353,4,0,True,"[74, 74, 74, 74]","[441, 848, 1144, 1503]",68.5984388693479,61.0,4026.9200000038836,-7.598438869347902,True,2,0,6,0,2,4,12.0,0.9338137965259741,51.68528360745418,55.40187053045635,-11.293049653618567,-20.383877918725474,0.008015348653338422
IT2,4,7,710,84.50704225352112,2,2,True,"[74, 74, 74, 74]","[389, 819, 1567, 2229]",31.580629700998873,34.0,3469.909999999916,2.4193702990011268,True,2,0,7,0,2,4,12.0,0.9338137965259741,51.68528360745418,55.40187053045635,2.7240677637016866,4.9169238107297675,0.00025431548144950127
IT2,4,3,463,129.58963282937364,4,2,True,"[74, 74, 74, 74]","[377, 813, 1178, 1625]",62.42097125758927,44.0,7870.610000005341,-18.420971257589272,True,2,0,8,0,2,4,12.0,0.9338137965259741,51.68528360745418,55.40187053045635,-21.448184436963786,-38.71382722569442,0.025249738186515238
IT2,4,7,329,182.370820668693,5,0,True,"[74, 74, 74, 74]","[389, 789, 1033, 1335]",87.06720173383901,81.0,3507.4900000035996,-6.067201733839013,True,2,0,9,0,2,4,12.0,0.9338137965259741,51.68528360745418,55.40187053045635,-11.757129835143303,-21.22153949419451,0.015682994342782794
IT2,4,6,463,129.58963282937364,4,1,True,"[74, 74, 74]","[621, 1138, 1521]",62.42097125758927,70.0,2868.2650000046706,7.579028742410728,True,2,0,10,0,2,4,12.0,0.9338137965259741,51.68528360745418,55.40187053045635,4.5518155630362145,8.215996173872725,0.0013480404182420827
IT2,4,2,843,71.17437722419929,1,1,True,"[74, 74, 74, 74]","[290, 691, 1892, 2601]",19.194949373496982,13.0,3038.5099999986123,-6.194949373496982,True,2,0,11,0,2,4,12.0,0.9338137965259741,51.68528360745418,55.40187053045635,-4.552135077580715,-8.216572895455302,0.0037892617261806234
IT2,4,3,329,182.370820668693,5,2,True,"[74, 74, 74, 74]","[418, 772, 1022, 1295]",87.06720173383901,84.0,4585.034999996424,-3.0672017338390134,True,2,0,12,0,2,4,12.0,0.9338137965259741,51.68528360745418,55.40187053045635,-8.757129835143303,-15.806559871167531,0.008013295860338158
IT2,4,5,463,129.58963282937364,4,2,True,"[74, 74, 74, 74]","[435, 766, 1115, 1562]",62.42097125758927,55.0,8764.79500000272,-7.420971257589272,True,2,0,13,0,2,4,12.0,0.9338137965259741,51.68528360745418,55.40187053045635,-10.448184436963786,-18.858901941262168,0.005797373167885554
IT2,4,6,504,119.04761904761905,3,1,True,"[74, 74, 74, 74]","[430, 853, 1283, 1788]",56.30039424560527,50.0,3618.255000001169,-6.300394245605268,True,2,0,14,0,2,4,12.0,0.9338137965259741,51.68528360745418,55.40187053045635,-8.666356133171284,-15.64271395567246,0.003592051344617291
IT2,4,5,329,182.370820668693,5,0,True,"[74, 74, 74]","[441, 819, 1167]",87.06720173383901,84.0,3502.2000000025146,-3.0672017338390134,True,2,0,15,0,2,4,12.0,0.9338137965259741,51.68528360745418,55.40187053045635,-8.757129835143303,-15.806559871167531,0.008013295860338158
IT2,4,4,774,77.51937984496124,2,1,True,"[74, 74, 74, 74, 74]","[435, 801, 1649, 2334, 3065]",25.354902613380577,12.0,3333.5349999980535,-13.354902613380577,True,2,0,16,0,2,4,12.0,0.9338137965259741,51.68528360745418,55.40187053045635,-12.377593714974633,-22.34147258289815,0.01582534054629589
IT2,4,5,550,109.0909090909091,3,1,True,"[74, 74, 74, 74]","[406, 813, 1271, 1759]",50.0,54.0,4094.3850000039674,4.0,True,2,0,17,0,2,4,12.0,0.9338137965259741,51.68528360745418,55.40187053045635,2.3147163925458187,4.178047366240708,0.0002213292279163614
IT2,4,3,710,84.50704225352112,2,1,True,"[74, 74, 74, 74]","[389, 819, 1538, 2247]",31.580629700998873,7.0,5067.065000002971,-24.580629700998873,True,2,0,18,0,2,4,12.0,0.9338137965259741,51.68528360745418,55.40187053045635,-24.275932236298313,-43.81789279651304,0.04368821162815274
IT2,4,4,463,129.58963282937364,4,1,True,"[74, 74, 74, 74]","[406, 848, 1184, 1556]",62.42097125758927,87.0,2318.619999998249,24.579028742410728,True,2,0,19,0,2,4,12.0,0.9338137965259741,51.68528360745418,55.40187053045635,21.551815563036214,38.90088070435894,0.02709951723628058
IT2,4,5,652,92.02453987730061,2,1,True,"[74, 74, 74, 74]","[453, 824, 1533, 2142]",37.727982709047225,36.0,2878.4250000026077,-1.7279827090472253,True,2,0,20,0,2,4,12.0,0.9338137965259741,51.68528360745418,55.40187053045635,-2.0874293454364334,-3.76779579001561,0.0004035935448007114
IT2,4,4,504,119.04761904761905,3,0,True,"[74, 74, 74, 74]","[424, 877, 1254, 1707]",56.30039424560527,64.0,2399.7000000016997,7.699605754394732,True,2,0,21,0,2,4,12.0,0.9338137965259741,51.68528360745418,55.40187053045635,5.333643866828716,9.627190951786773,0.0014471820039103054
IT2,4,5,843,71.17437722419929,1,2,True,"[74, 74, 74, 74]","[383, 813, 1776, 2612]",19.194949373496982,6.0,4158.02000000258,-13.194949373496982,True,2,0,22,0,2,4,12.0,0.9338137965259741,51.68528360745418,55.40187053045635,-11.552135077580715,-20.851525349184918,0.018388107820930394
IT2,4,4,302,198.67549668874173,5,2,True,"[74, 74, 74, 74]","[348, 731, 987, 1196]",93.24415345434716,97.0,3246.7000000033295,3.755846545652844,True,2,0,23,0,2,4,12.0,0.9338137965259741,51.68528360745418,55.40187053045635,-2.6014234249927313,-4.69555161240023,0.0002299662817475054
IT2,4,7,918,65.359477124183,1,0,True,"[74, 74, 74, 74]","[447, 731, 2049, 2879]",13.046873249910696,9.0,3587.5750000050757,-4.046873249910696,True,2,0,24,0,2,4,12.0,0.9338137965259741,51.68528360745418,55.40187053045635,-1.7398367293743604,-3.1403934789853554,0.001483548616031379
IT2,4,2,302,198.67549668874173,5,1,True,"[74, 74, 74, 74]","[424, 720, 969, 1167]",93.24415345434716,93.0,2909.074999995879,-0.24415345434715618,True,2,0,25,0,2,4,12.0,0.9338137965259741,51.68528360745418,55.40187053045635,-6.601423424992731,-11.91552444310287,0.00470292017231278
IT2,4,7,463,129.58963282937364,4,2,True,"[74, 74, 74, 74]","[459, 772, 1109, 1602]",62.42097125758927,58.0,3503.5550000029616,-4.420971257589272,True,2,0,26,0,2,4,12.0,0.9338137965259741,51.68528360745418,55.40187053045635,-7.4481844369637855,-13.443922318235192,0.0028696648134810517
IT2,4,3,918,65.359477124183,1,2,True,"[74, 74, 74, 74, 74]","[464, 1068, 1974, 2856, 3680]",13.046873249910696,2.0,3462.4599999950733,-11.046873249910696,True,2,0,27,0,2,4,12.0,0.9338137965259741,51.68528360745418,55.40187053045635,-8.73983672937436,-15.775345932714972,0.014856543954465543
IT2,4,7,504,119.04761904761905,3,2,True,"[74, 74, 74, 74]","[412, 842, 1265, 1759]",56.30039424560527,62.0,6400.574999999604,5.699605754394732,True,2,0,28,0,2,4,12.0,0.9338137965259741,51.68528360745418,55.40187053045635,3.333643866828716,6.017204536435453,0.0005781781558273956
IT2,4,6,652,92.02453987730061,2,1,True,"[74, 74, 74, 74, 74]","[418, 824, 1434, 2032, 2653]",37.727982709047225,38.0,3618.494999995106,0.2720172909527747,True,2,0,29,0,2,4,12.0,0.9338137965259741,51.68528360745418,55.40187053045635,-0.08742934543643344,-0.15780937466429126,2.5450099626620923e-05
IT2,4,2,599,100.1669449081803,3,0,True,"[74, 74, 74, 74]","[424, 795, 1393, 1939]",43.84378078116181,50.0,5110.849999997299,6.156219218838189,True,2,0,30,0,2,4,12.0,0.9338137965259741,51.68528360745418,55.40187053045635,5.136037594929427,9.270512973214446,0.0011181973107398332
IT2,4,3,1000,60.0,1,0,True,"[74, 74, 74, 74]","[499, 906, 1950, 3175]",6.875176187496734,14.0,2805.5400000012014,7.124823812503266,True,2,1,31,0,2,4,12.0,0.9338137965259741,51.68528360745418,55.40187053045635,10.09863450272676,18.227966684220863,0.012519945165531395
IT2,4,5,358,167.5977653631285,5,2,True,"[74, 74, 74, 74]","[447, 801, 1051, 1283]",80.97360155738828,94.0,2057.099999998114,13.026398442611722,True,2,1,32,0,2,4,12.0,0.9338137965259741,51.68528360745418,55.40187053045635,7.9948071256584825,14.430572558490523,0.009090116150007797
IT2,4,4,1000,60.0,1,2,True,"[74, 74, 74, 74]","[412, 766, 2090, 3007]",6.875176187496734,5.0,2305.8099999979604,-1.8751761874967343,True,2,1,33,0,2,4,12.0,0.9338137965259741,51.68528360745418,55.40187053045635,1.0986345027267603,1.983027815139928,6.931507270024015e-05
IT2,4,3,774,77.51937984496124,2,0,True,"[74, 74, 74]","[743, 1637, 2485]",25.354902613380577,36.0,4361.74000000034,10.645097386619423,True,2,1,34,0,2,4,12.0,0.9338137965259741,51.68528360745418,55.40187053045635,11.622406285025367,20.97836440131768,0.00984445070196156
IT2,4,4,329,182.370820668693,5,1,True,"[74, 74, 74, 74]","[441, 807, 1010, 1225]",87.06720173383901,96.0,4952.5099999955855,8.932798266160987,True,2,1,35,0,2,4,12.0,0.9338137965259741,51.68528360745418,55.40187053045635,3.242870164856697,5.8533586209403845,0.002845366643758285
IT2,4,5,1000,60.0,1,0,True,"[74, 74, 74, 74]","[493, 975, 2409, 3181]",6.875176187496734,14.0,4168.050000000163,7.124823812503266,True,2,1,36,0,2,4,12.0,0.9338137965259741,51.68528360745418,55.40187053045635,10.09863450272676,18.227966684220863,0.012519945165531395
IT2,4,2,358,167.5977653631285,5,2,True,"[74, 74, 74, 74]","[453, 842, 1062, 1283]",80.97360155738828,93.0,2071.9850000024308,12.026398442611722,True,2,1,37,0,2,4,12.0,0.9338137965259741,51.68528360745418,55.40187053045635,6.9948071256584825,12.625579350814863,0.007183849637626208
IT2,4,7,550,109.0909090909091,3,1,True,"[74, 74, 74, 74]","[441, 923, 1405, 1921]",50.0,50.0,1092.250000001397,0.0,True,2,1,38,0,2,4,12.0,0.9338137965259741,51.68528360745418,55.40187053045635,-1.6852836074541813,-3.0419254644619294,0.00015288936398786632
IT2,4,2,1000,60.0,1,2,True,"[74, 74, 74, 74, 74]","[453, 795, 2142, 3117, 4040]",6.875176187496734,10.0,4130.620000003604,3.1248238125032657,True,2,1,39,0,2,4,12.0,0.9338137965259741,51.68528360745418,55.40187053045635,6.09863450272676,11.007993853518226,0.0034178383702667247
IT2,4,7,652,92.02453987730061,2,1,True,"[74, 74, 74, 74]","[441, 1045, 1585, 2183]",37.727982709047225,50.0,1652.5000000038417,12.272017290952775,True,2,1,40,0,2,4,12.0,0.9338137965259741,51.68528360745418,55.40187053045635,11.912570654563567,21.502109117443624,0.007263157830571242
IT2,4,6,302,198.67549668874173,5,2,True,"[74, 74, 74, 74]","[441, 749, 1016, 1236]",93.24415345434716,78.0,2579.6599999957252,-15.244153454347156,True,2,1,41,0,2,4,12.0,0.9338137965259741,51.68528360745418,55.40187053045635,-21.60142342499273,-38.99042255823776,0.07229502621911069
IT2,4,2,504,119.04761904761905,3,2,True,"[74, 74, 74, 74]","[406, 807, 1289, 1736]",56.30039424560527,50.0,3058.8900000001304,-6.300394245605268,True,2,1,42,0,2,4,12.0,0.9338137965259741,51.68528360745418,55.40187053045635,-8.666356133171284,-15.64271395567246,0.003592051344617291
IT2,4,4,652,92.02453987730061,2,2,True,"[74, 74, 74, 74]","[464, 900, 1486, 2096]",37.727982709047225,50.0,1646.4100000010803,12.272017290952775,True,2,1,43,0,2,4,12.0,0.9338137965259741,51.68528360745418,55.40187053045635,11.912570654563567,21.502109117443624,0.007263157830571242
IT2,4,2,463,129.58963282937364,4,2,True,"[74, 74, 74, 74]","[470, 842, 1126, 1596]",62.42097125758927,84.0,3138.480000001611,21.579028742410728,True,2,1,44,0,2,4,12.0,0.9338137965259741,51.68528360745418,55.40187053045635,18.551815563036214,33.48590108133196,0.020177656869052013
IT2,4,6,774,77.51937984496124,2,0,True,"[74, 74, 74, 74]","[435, 882, 1614, 2403]",25.354902613380577,28.0,2872.074999999255,2.6450973866194225,True,2,1,45,0,2,4,12.0,0.9338137965259741,51.68528360745418,55.40187053045635,3.6224062850253667,6.538418739912406,0.000586279067465061
IT2,4,7,302,198.67549668874173,5,2,True,"[74, 74, 74, 74]","[476, 795, 1004, 1254]",93.24415345434716,90.0,2789.9450000040233,-3.244153454347156,True,2,1,46,0,2,4,12.0,0.9338137965259741,51.68528360745418,55.40187053045635,-9.601423424992731,-17.330504066129848,0.011802158776555122
IT2,4,2,710,84.50704225352112,2,1,True,"[74, 74, 74, 74, 74]","[430, 848, 1544, 2218, 2850]",31.580629700998873,15.0,1896.9800000048708,-16.580629700998873,True,2,1,47,0,2,4,12.0,0.9338137965259741,51.68528360745418,55.40187053045635,-16.275932236298313,-29.377947135107764,0.020266681869986827
IT2,4,3,599,100.1669449081803,3,2,True,"[74, 74, 74, 74]","[401, 842, 1376, 1904]",43.84378078116181,42.0,5485.605000001611,-1.8437807811618114,True,2,1,48,0,2,4,12.0,0.9338137965259741,51.68528360745418,55.40187053045635,-2.8639624050705734,-5.169432688190831,0.000508192773976284
IT2,4,7,1000,60.0,1,1,True,"[74, 74, 74, 74, 74]","[453, 853, 2119, 3036, 3976]",6.875176187496734,37.0,6953.545000003884,30.124823812503266,True,2,1,49,0,2,4,12.0,0.9338137965259741,51.68528360745418,55.40187053045635,33.09863450272676,59.74281046076103,0.1756587799502015
IT2,4,6,599,100.1669449081803,3,2,True,"[74, 74, 74, 74]","[488, 1103, 1492, 2026]",43.84378078116181,40.0,6119.599999997998,-3.8437807811618114,True,2,1,50,0,2,4,12.0,0.9338137965259741,51.68528360745418,55.40187053045635,-4.863962405070573,-8.77941910354215,0.001335082342786753
IT2,4,7,425,141.1764705882353,4,0,True,"[74, 74, 74, 74]","[453, 848, 1103, 1480]",68.5984388693479,93.0,4167.569999997737,24.401561130652098,True,2,1,51,0,2,4,12.0,0.9338137965259741,51.68528360745418,55.40187053045635,20.706950346381433,37.375904726895634,0.03143536048910724
IT2,4,6,1000,60.0,1,2,True,"[74, 74, 74, 74]","[453, 848, 2177, 3210]",6.875176187496734,8.0,3023.650000002701,1.1248238125032657,True,2,1,52,0,2,4,12.0,0.9338137965259741,51.68528360745418,55.40187053045635,4.09863450272676,7.398007438166906,0.0010078810250382156
IT2,4,5,390,153.84615384615384,4,1,True,"[74, 74, 74, 74]","[424, 836, 1074, 1370]",74.79787473312055,93.0,2333.6699999999255,18.20212526687945,True,2,1,53,0,2,4,12.0,0.9338137965259741,51.68528360745418,55.40187053045635,13.837743484649422,24.97703299935032,0.018807710584501983
IT2,4,3,358,167.5977653631285,5,0,True,"[74, 74, 74]","[488, 830, 1091]",80.97360155738828,94.0,3041.144999995595,13.026398442611722,True,2,1,54,0,2,4,12.0,0.9338137965259741,51.68528360745418,55.40187053045635,7.9948071256584825,14.430572558490523,0.009090116150007797
IT2,4,6,390,153.84615384615384,4,0,True,"[74, 74, 74, 74]","[499, 824, 1109, 1370]",74.79787473312055,90.0,2663.9550000038,15.202125266879449,True,2,1,55,0,2,4,12.0,0.9338137965259741,51.68528360745418,55.40187053045635,10.837743484649422,19.56205337632334,0.01188214785619568
IT2,4,5,599,100.1669449081803,3,0,True,"[74, 74, 74]","[1591, 1945, 2351]",43.84378078116181,50.0,2237.294999998994,6.156219218838189,True,2,1,56,0,2,4,12.0,0.9338137965259741,51.68528360745418,55.40187053045635,5.136037594929427,9.270512973214446,0.0011181973107398332
IT2,4,4,425,141.1764705882353,4,2,True,"[74, 74, 74, 74]","[737, 969, 1254, 1544]",68.5984388693479,88.0,3035.3299999989104,19.401561130652098,True,2,1,57,0,2,4,12.0,0.9338137965259741,51.68528360745418,55.40187053045635,15.706950346381433,28.350938688517335,0.0183895887328548
IT2,4,5,774,77.51937984496124,2,2,True,"[74, 74, 74, 74]","[1016, 1236, 1834, 2502]",25.354902613380577,14.0,3989.6700000027195,-11.354902613380577,True,2,1,58,0,2,4,12.0,0.9338137965259741,51.68528360745418,55.40187053045635,-10.377593714974633,-18.731486167546826,0.011459126265246549
IT2,4,3,425,141.1764705882353,4,1,True,"[74, 74, 74]","[737, 1144, 1445]",68.5984388693479,92.0,2778.010000001872,23.401561130652098,True,2,1,59,0,2,4,12.0,0.9338137965259741,51.68528360745418,55.40187053045635,19.706950346381433,35.57091151921997,0.02854809073320746
IT2,4,4,550,109.0909090909091,3,1,True,"[74, 74, 74, 74]","[401, 998, 1387, 1898]",50.0,50.0,909.2499999969732,0.0,True,2,1,60,0,2,4,12.0,0.9338137965259741,51.68528360745418,55.40187053045635,-1.6852836074541813,-3.0419254644619294,0.00015288936398786632
IT2,4,4,599,100.1669449081803,3,2,True,"[74, 74, 74, 74]","[424, 900, 1329, 1910]",43.84378078116181,50.0,1346.5300000023562,6.156219218838189,True,2,2,61,0,2,4,12.0,0.9338137965259741,51.68528360745418,55.40187053045635,5.136037594929427,9.270512973214446,0.0011181973107398332
IT2,4,2,652,92.02453987730061,2,2,True,"[74, 74, 74, 74]","[517, 917, 1550, 2159]",37.727982709047225,33.0,3286.8600000001024,-4.727982709047225,True,2,2,62,0,2,4,12.0,0.9338137965259741,51.68528360745418,55.40187053045635,-5.087429345436433,-9.18277541304259,0.001819609462739451
IT2,4,3,550,109.0909090909091,3,1,True,"[74, 74, 74, 74]","[401, 848, 1364, 1869]",50.0,36.0,2881.345000001602,-14.0,True,2,2,63,0,2,4,12.0,0.9338137965259741,51.68528360745418,55.40187053045635,-15.685283607454181,-28.311830371921165,0.01160182746115621
IT2,4,7,774,77.51937984496124,2,0,True,"[74, 74, 74, 74]","[517, 911, 1736, 2438]",25.354902613380577,16.0,5203.145000006771,-9.354902613380577,True,2,2,64,0,2,4,12.0,0.9338137965259741,51.68528360745418,55.40187053045635,-8.377593714974633,-15.121499752195508,0.007796149583110201
IT2,4,3,302,198.67549668874173,5,1,True,"[74, 74, 74]","[499, 836, 1120]",93.24415345434716,92.0,3545.7450000031386,-1.2441534543471562,True,2,2,65,0,2,4,12.0,0.9338137965259741,51.68528360745418,55.40187053045635,-7.601423424992731,-13.720517650778527,0.006712711784553715
IT2,4,7,599,100.1669449081803,3,0,True,"[74, 74, 74, 74]","[453, 882, 1393, 1933]",43.84378078116181,50.0,1478.3200000019278,6.156219218838189,True,2,2,66,0,2,4,12.0,0.9338137965259741,51.68528360745418,55.40187053045635,5.136037594929427,9.270512973214446,0.0011181973107398332
IT2,4,2,329,182.370820668693,5,0,True,"[74, 74, 74]","[650, 917, 1236]",87.06720173383901,91.0,2594.640000003157,3.9327982661609866,True,2,2,67,0,2,4,12.0,0.9338137965259741,51.68528360745418,55.40187053045635,-1.757129835143303,-3.1716074174379134,3.822456754460137e-05
IT2,4,4,918,65.359477124183,1,0,True,"[74, 74, 74, 74]","[348, 784, 1782, 2653]",13.046873249910696,7.0,2855.4000000003725,-6.046873249910696,True,2,2,68,0,2,4,12.0,0.9338137965259741,51.68528360745418,55.40187053045635,-3.7398367293743604,-6.750379894336674,0.0038859043086204434
IT2,4,6,550,109.0909090909091,3,0,True,"[74, 74, 74, 74]","[435, 824, 1306, 1811]",50.0,50.0,843.6900000013411,0.0,True,2,2,69,0,2,4,12.0,0.9338137965259741,51.68528360745418,55.40187053045635,-1.6852836074541813,-3.0419254644619294,0.00015288936398786632
IT2,4,4,390,153.84615384615384,4,0,True,"[74, 74, 74, 74]","[412, 848, 1132, 1399]",74.79787473312055,87.0,2716.5150000001304,12.202125266879449,True,2,2,70,0,2,4,12.0,0.9338137965259741,51.68528360745418,55.40187053045635,7.8377434846494225,14.147073753296363,0.006539847532238787
IT2,4,2,550,109.0909090909091,3,1,True,"[74, 74, 74, 74]","[424, 871, 1591, 1916]",50.0,36.0,4520.019999996293,-14.0,True,2,2,71,0,2,4,12.0,0.9338137965259741,51.68528360745418,55.40187053045635,-15.685283607454181,-28.311830371921165,0.01160182746115621
IT2,4,6,425,141.1764705882353,4,2,True,"[74, 74, 74, 74]","[580, 940, 1202, 1515]",68.5984388693479,75.0,8683.559999997728,6.401561130652098,True,2,2,72,0,2,4,12.0,0.9338137965259741,51.68528360745418,55.40187053045635,2.706950346381433,4.886026988733761,0.0007403333385819536
IT2,4,7,843,71.17437722419929,1,2,True,"[74, 74, 74, 74]","[522, 906, 1887, 2670]",19.194949373496982,29.0,8426.444999997271,9.805050626503018,True,2,2,73,0,2,4,12.0,0.9338137965259741,51.68528360745418,55.40187053045635,11.447864922419285,20.66331842735525,0.011597246562213545
IT2,4,6,329,182.370820668693,5,1,True,"[74, 74, 74, 74]","[499, 813, 1062, 1300]",87.06720173383901,87.0,3900.5550000001676,-0.0672017338390134,True,2,2,74,0,2,4,12.0,0.9338137965259741,51.68528360745418,55.40187053045635,-5.757129835143303,-10.391580248140551,0.0028946838492133887
IT2,4,5,504,119.04761904761905,3,2,True,"[74, 74, 74, 74]","[453, 882, 1231, 1736]",56.30039424560527,60.0,2270.779999998864,3.6996057543947316,True,2,2,75,0,2,4,12.0,0.9338137965259741,51.68528360745418,55.40187053045635,1.3336438668287158,2.4072181210841337,0.00010097889237721677
IT2,4,6,918,65.359477124183,1,0,True,"[74, 74, 74, 74]","[406, 935, 1968, 2868]",13.046873249910696,28.0,2131.7000000053085,14.953126750089304,True,2,2,76,0,2,4,12.0,0.9338137965259741,51.68528360745418,55.40187053045635,17.26016327062564,31.154477466852175,0.035259324260281014
IT2,4,5,425,141.1764705882353,4,0,True,"[74, 74, 74, 74]","[685, 1033, 1422, 1712]",68.5984388693479,89.0,3049.2200000006706,20.401561130652098,True,2,2,77,0,2,4,12.0,0.9338137965259741,51.68528360745418,55.40187053045635,16.706950346381433,30.155931896192996,0.020720627679455993
IT2,4,4,710,84.50704225352112,2,0,True,"[74, 74, 74, 74]","[377, 882, 1591, 2258]",31.580629700998873,20.0,3246.1150000016205,-11.580629700998873,True,2,2,78,0,2,4,12.0,0.9338137965259741,51.68528360745418,55.40187053045635,-11.275932236298313,-20.352981096729465,0.010140691348446855
IT2,4,7,390,153.84615384615384,4,1,True,"[74, 74, 74, 74]","[255, 726, 1080, 1399]",74.79787473312055,93.0,1984.309999999823,18.20212526687945,True,2,2,79,0,2,4,12.0,0.9338137965259741,51.68528360745418,55.40187053045635,13.837743484649422,24.97703299935032,0.018807710584501983
IT2,4,5,918,65.359477124183,1,1,True,"[74, 74, 74, 74]","[412, 923, 1904, 2804]",13.046873249910696,16.0,2454.335000002291,2.9531267500893037,True,2,2,80,0,2,4,12.0,0.9338137965259741,51.68528360745418,55.40187053045635,5.26016327062564,9.494558974744262,0.002011854437840035
IT2,4,3,390,153.84615384615384,4,0,True,"[74, 74]","[1074, 1393]",74.79787473312055,85.0,2401.9499999994878,10.202125266879449,True,2,2,81,0,2,4,12.0,0.9338137965259741,51.68528360745418,55.40187053045635,5.8377434846494225,10.537087337945044,0.003857904207572754
IT2,4,6,710,84.50704225352112,2,2,True,"[74, 74, 74, 74, 74]","[412, 836, 1492, 2101, 2734]",31.580629700998873,10.0,2808.9699999983422,-21.580629700998873,True,2,2,82,0,2,4,12.0,0.9338137965259741,51.68528360745418,55.40187053045635,-21.275932236298313,-38.402913173486056,0.033863799758691214
IT2,4,3,843,71.17437722419929,1,1,True,"[74, 74, 74, 74, 74]","[435, 819, 1625, 2409, 3204]",19.194949373496982,11.0,2028.3100000014529,-8.194949373496982,True,2,2,83,0,2,4,12.0,0.9338137965259741,51.68528360745418,55.40187053045635,-6.552135077580715,-11.826559310806621,0.006841426482412596
IT2,4,5,710,84.50704225352112,2,0,True,"[74, 74, 74, 74, 74]","[389, 853, 1434, 2049, 2676]",31.580629700998873,26.0,3853.9749999982305,-5.580629700998873,True,2,2,84,0,2,4,12.0,0.9338137965259741,51.68528360745418,55.40187053045635,-5.275932236298313,-9.523021850675509,0.002571390847255884
IT2,4,2,918,65.359477124183,1,0,True,"[74, 74, 74, 74]","[372, 917, 1974, 2862]",13.046873249910696,21.0,5843.825000003679,7.953126750089304,True,2,2,85,0,2,4,12.0,0.9338137965259741,51.68528360745418,55.40187053045635,10.26016327062564,18.51952501312256,0.010900216449484678
IT2,4,7,358,167.5977653631285,5,1,True,"[74, 74, 74, 74]","[435, 859, 1045, 1254]",80.97360155738828,96.0,3185.975000000093,15.026398442611722,True,2,2,86,0,2,4,12.0,0.9338137965259741,51.68528360745418,55.40187053045635,9.994807125658483,18.040558973841843,0.01357483993389429
IT2,4,2,390,153.84615384615384,4,1,True,"[74, 74, 74, 74]","[406, 801, 1045, 1370]",74.79787473312055,88.0,2302.909999998519,13.202125266879449,True,2,2,87,0,2,4,12.0,0.9338137965259741,51.68528360745418,55.40187053045635,8.837743484649422,15.952066960972022,0.008144696261963373
IT2,4,5,302,198.67549668874173,5,1,True,"[74, 74, 74, 74]","[424, 743, 998, 1248]",93.24415345434716,86.0,4877.980000004638,-7.244153454347156,True,2,2,88,0,2,4,12.0,0.9338137965259741,51.68528360745418,55.40187053045635,-13.601423424992731,-24.550476896832485,0.0262605078306361
IT2,4,3,652,92.02453987730061,2,2,True,"[74, 74, 74, 74]","[389, 789, 1474, 2142]",37.727982709047225,39.0,3296.884999996051,1.2720172909527747,True,2,2,89,0,2,4,12.0,0.9338137965259741,51.68528360745418,55.40187053045635,0.9125706545635666,1.6471838330113682,6.1385270750965014e-06
IT2,4,4,358,167.5977653631285,5,0,True,"[74, 74, 74, 74]","[377, 789, 1103, 1428]",80.97360155738828,79.0,3310.490000003483,-1.9736015573882781,True,2,2,90,0,2,4,12.0,0.9338137965259741,51.68528360745418,55.40187053045635,-7.0051928743415175,-12.64432555664437,0.004022795033600126
IT2,5,7,390,153.84615384615384,4,0,True,"[74, 74, 74, 74]","[186, 557, 807, 1202]",74.79787473312055,100.0,2448.274999995192,25.20212526687945,True,2,0,1,3,3,0,45.0,0.5834747008565494,52.035264261079156,35.75099555073335,30.233761553892123,84.56760738589263,0.02187174139812258
IT2,5,4,504,119.04761904761905,3,2,True,"[74, 74, 74, 74]","[488, 1039, 1544, 2043]",56.30039424560527,50.0,1298.1399999989662,-6.300394245605268,True,2,0,2,3,3,0,45.0,0.5834747008565494,52.035264261079156,35.75099555073335,-6.540171593929152,-18.293676842224315,0.0005515117012602449
IT2,5,6,390,153.84615384615384,4,1,True,"[74, 74, 74, 74]","[517, 900, 1173, 1533]",74.79787473312055,99.0,2755.794999997306,24.20212526687945,True,2,0,3,3,3,0,45.0,0.5834747008565494,52.035264261079156,35.75099555073335,29.233761553892123,81.77048248182967,0.020529379278626532
IT2,5,5,599,100.1669449081803,3,2,True,"[74, 74, 74, 74]","[435, 1097, 1776, 2444]",43.84378078116181,3.0,3220.535000000382,-40.84378078116181,True,2,0,4,3,3,0,45.0,0.5834747008565494,52.035264261079156,35.75099555073335,-44.6334449430387,-124.8453204042961,0.025426622947335095
IT2,5,4,652,92.02453987730061,2,1,True,"[74, 74, 74]","[342, 1097, 1840]",37.727982709047225,3.0,3582.9300000041258,-34.727982709047225,True,2,0,5,3,3,0,45.0,0.5834747008565494,52.035264261079156,35.75099555073335,-40.26052754973165,-112.61372426006693,0.024915751461690838
IT2,5,6,504,119.04761904761905,3,0,True,"[74, 74, 74, 74, 74]","[203, 610, 993, 1480, 1858]",56.30039424560527,50.0,2050.4650000002584,-6.300394245605268,True,2,0,6,3,3,0,45.0,0.5834747008565494,52.035264261079156,35.75099555073335,-6.540171593929152,-18.293676842224315,0.000551511701260245
IT2,5,5,710,84.50704225352112,2,0,True,"[74, 74, 74, 74, 74]","[255, 575, 1422, 2159, 2856]",31.580629700998873,4.0,2462.054999996326,-27.580629700998873,True,2,0,7,3,3,0,45.0,0.5834747008565494,52.035264261079156,35.75099555073335,-34.86504774894117,-97.52189333990728,0.02422346550156534
IT2,5,3,302,198.67549668874173,5,2,True,"[74, 74, 74, 74, 74]","[75, 488, 697, 865, 1184]",93.24415345434716,89.0,2486.3100000002305,-4.244153454347156,True,2,0,8,3,3,0,45.0,0.5834747008565494,52.035264261079156,35.75099555073335,6.044304984088939,16.906675998746987,0.004321909222497862
IT2,5,6,652,92.02453987730061,2,0,True,"[74, 74, 74, 74]","[551, 784, 1190, 2003]",37.727982709047225,13.0,4095.0099999972736,-24.727982709047225,True,2,0,9,3,3,0,45.0,0.5834747008565494,52.035264261079156,35.75099555073335,-30.26052754973165,-84.64247521943742,0.014609495126948533
IT2,5,2,302,198.67549668874173,5,1,True,"[74, 74, 74]","[424, 668, 1033]",93.24415345434716,96.0,2004.1850000052364,2.755846545652844,True,2,0,10,3,3,0,45.0,0.5834747008565494,52.035264261079156,35.75099555073335,13.044304984088939,36.48655032718764,0.012474490981637951
IT2,5,3,599,100.1669449081803,3,0,True,"[74, 74, 74, 74]","[255, 998, 1683, 2293]",43.84378078116181,17.0,2576.6749999966123,-26.84378078116181,True,2,0,11,3,3,0,45.0,0.5834747008565494,52.035264261079156,35.75099555073335,-30.633444943038697,-85.6855717474148,0.012387458788453517
IT2,5,4,358,167.5977653631285,5,1,True,"[74, 74, 74, 74]","[238, 760, 1132, 1469]",80.97360155738828,96.0,3771.5099999986705,15.026398442611722,True,2,0,12,3,3,0,45.0,0.5834747008565494,52.035264261079156,35.75099555073335,21.817993909553323,61.02765412110538,0.01608386727437833
IT2,5,2,463,129.58963282937364,4,1,True,"[74, 74, 74, 74]","[366, 882, 1411, 1898]",62.42097125758927,50.0,1485.160000003816,-12.420971257589272,True,2,0,13,3,3,0,45.0,0.5834747008565494,52.035264261079156,35.75099555073335,-10.91650602439637,-30.53483086619232,0.0015073346058177492
IT2,5,5,302,198.67549668874173,5,2,True,"[74, 74, 74]","[476, 795, 1074]",93.24415345434716,98.0,2701.8200000020443,4.755846545652844,True,2,0,14,3,3,0,45.0,0.5834747008565494,52.035264261079156,35.75099555073335,15.044304984088939,42.080800135313545,0.01557935084948261
IT2,5,3,710,84.50704225352112,2,1,True,"[74, 74, 74, 74]","[923, 1411, 2177, 2862]",31.580629700998873,9.0,2805.769999999029,-22.580629700998873,True,2,0,15,3,3,0,45.0,0.5834747008565494,52.035264261079156,35.75099555073335,-29.865047748941173,-83.53626881959252,0.018268301786441208
IT2,5,4,1000,60.0,1,0,True,"[74, 74, 74, 74]","[232, 447, 1207, 3477]",6.875176187496734,0.0,4155.960000003688,-6.875176187496734,True,2,0,16,3,3,0,45.0,0.5834747008565494,52.035264261079156,35.75099555073335,-21.20015657613988,-59.29948592915479,0.031856546030706624
IT2,5,7,599,100.1669449081803,3,1,True,"[74, 74, 74, 74, 74]","[58, 540, 1126, 1898, 2380]",43.84378078116181,50.0,992.2799999985727,6.156219218838189,True,2,0,17,3,3,0,45.0,0.5834747008565494,52.035264261079156,35.75099555073335,2.366555056961303,6.619550086662576,4.915384989618251e-06
IT2,5,2,918,65.359477124183,1,1,True,"[74, 74, 74, 74]","[174, 563, 1846, 2815]",13.046873249910696,99.0,2533.8250000058906,85.9531267500893,True,2,0,18,3,3,0,45.0,0.5834747008565494,52.035264261079156,35.75099555073335,73.38695713948341,205.2724854482494,0.15903207695865573
IT2,5,7,329,182.370820668693,5,2,True,"[74, 74, 74, 74, 74]","[418, 639, 853, 1068, 1353]",87.06720173383901,50.0,1025.0599999999395,-37.06720173383901,True,2,0,19,3,3,0,45.0,0.5834747008565494,52.035264261079156,35.75099555073335,-28.53905154637144,-79.82729181869182,0.02188570821460707
IT2,5,5,463,129.58963282937364,4,0,True,"[74, 74, 74, 74, 74]","[192, 575, 969, 1382, 1817]",62.42097125758927,50.0,2912.750000003143,-12.420971257589272,True,2,0,20,3,3,0,45.0,0.5834747008565494,52.035264261079156,35.75099555073335,-10.91650602439637,-30.53483086619232,0.0015073346058177492
IT2,5,6,1000,60.0,1,1,True,"[74, 74, 74]","[366, 2241, 3268]",6.875176187496734,6.0,3931.315000001632,-0.8751761874967343,True,2,0,21,3,3,0,45.0,0.5834747008565494,52.035264261079156,35.75099555073335,-15.200156576139879,-42.516736504777086,0.019345305451079608
IT2,5,2,504,119.04761904761905,3,2,True,"[74, 74, 74, 74]","[563, 998, 1608, 2020]",56.30039424560527,50.0,5624.004999997851,-6.300394245605268,True,2,0,22,3,3,0,45.0,0.5834747008565494,52.035264261079156,35.75099555073335,-6.540171593929152,-18.293676842224315,0.000551511701260245
IT2,5,7,1000,60.0,1,0,True,"[74, 74]","[673, 1602]",6.875176187496734,11.0,1858.1450000056066,4.124823812503266,True,2,0,23,3,3,0,45.0,0.5834747008565494,52.035264261079156,35.75099555073335,-10.200156576139879,-28.53111198446233,0.011290525798121207
IT2,5,6,329,182.370820668693,5,1,True,,,87.06720173383901,93.0,2188.2449999975506,5.932798266160987,False,1,0,24,3,3,0,45.0,0.5834747008565494,52.035264261079156,35.75099555073335,14.46094845362856,40.449079056015066,0.010753509186771478
IT2,5,3,1000,60.0,1,0,True,"[74, 74, 74, 74, 74]","[1445, 1788, 2148, 2961, 3779]",6.875176187496734,96.0,3663.6600000056205,89.12482381250327,True,2,0,25,3,3,0,45.0,0.5834747008565494,52.035264261079156,35.75099555073335,74.79984342386012,209.22450486088852,0.20417916897038196
IT2,5,2,652,92.02453987730061,2,0,True,"[74, 74, 74]","[522, 1219, 1910]",37.727982709047225,10.0,4980.844999998226,-27.727982709047225,True,2,0,26,3,3,0,45.0,0.5834747008565494,52.035264261079156,35.75099555073335,-33.26052754973165,-93.03384993162626,0.017414231626323776
IT2,5,3,425,141.1764705882353,4,0,True,"[74, 74, 74, 74]","[528, 888, 1265, 1620]",68.5984388693479,67.0,6782.149999999092,-1.598438869347902,True,2,0,27,3,3,0,45.0,0.5834747008565494,52.035264261079156,35.75099555073335,1.6664816335479884,4.661357279360587,0.00013146266543802762
IT2,5,7,652,92.02453987730061,2,0,True,"[74, 74, 74, 74]","[116, 615, 1318, 1962]",37.727982709047225,50.0,3051.6499999939697,12.272017290952775,True,2,0,28,3,3,0,45.0,0.5834747008565494,52.035264261079156,35.75099555073335,6.739472450268352,18.851146230891764,0.00025430656561703014
IT2,5,5,843,71.17437722419929,1,2,True,"[74, 74, 74]","[267, 656, 1451]",19.194949373496982,22.0,3193.534999998519,2.805050626503018,True,2,0,29,3,3,0,45.0,0.5834747008565494,52.035264261079156,35.75099555073335,-8.009039703314656,-22.40228441177037,0.00427321930221483
IT2,5,4,425,141.1764705882353,4,0,True,"[74, 74, 74, 74]","[412, 801, 1225, 1602]",68.5984388693479,86.0,3124.7000000003027,17.401561130652098,True,2,0,30,3,3,0,45.0,0.5834747008565494,52.035264261079156,35.75099555073335,20.66648163354799,57.80673045655666,0.007982350837173276
IT2,5,5,329,182.370820668693,5,0,True,"[74, 74, 74, 74, 74]","[244, 569, 772, 975, 1213]",87.06720173383901,82.0,1587.744999997085,-5.067201733839013,True,2,1,31,3,3,0,45.0,0.5834747008565494,52.035264261079156,35.75099555073335,3.4609484536285606,9.680705111322606,0.0015465964780255821
IT2,5,4,710,84.50704225352112,2,2,True,"[74, 74, 74, 74]","[447, 1248, 1997, 2699]",31.580629700998873,76.0,2905.0849999985076,44.41937029900113,True,2,1,32,3,3,0,45.0,0.5834747008565494,52.035264261079156,35.75099555073335,37.13495225105883,103.87109975262518,0.019391433856878887
IT2,5,2,1000,60.0,1,0,True,"[74, 74]","[656, 1660]",6.875176187496734,15.0,4161.184999997204,8.124823812503266,True,2,1,33,3,3,0,45.0,0.5834747008565494,52.035264261079156,35.75099555073335,-6.200156576139879,-17.34261236821053,0.006398795709978258
IT2,5,4,390,153.84615384615384,4,2,True,[74],[255],74.79787473312055,83.0,2217.8550000025425,8.202125266879449,True,2,1,34,3,3,0,45.0,0.5834747008565494,52.035264261079156,35.75099555073335,13.233761553892123,37.016484016822474,0.004832676430218789
IT2,5,7,302,198.67549668874173,5,1,True,,,93.24415345434716,82.0,2598.7200000017183,-11.244153454347156,False,1,1,35,3,3,0,45.0,0.5834747008565494,52.035264261079156,35.75099555073335,-0.9556950159110613,-2.673198329693667,0.00039177067407186733
IT2,5,5,652,92.02453987730061,2,1,True,[74],[1457],37.727982709047225,50.0,2059.9099999963073,12.272017290952775,True,2,1,36,3,3,0,45.0,0.5834747008565494,52.035264261079156,35.75099555073335,6.739472450268352,18.851146230891764,0.00025430656561703014
IT2,5,6,358,167.5977653631285,5,0,True,,,80.97360155738828,50.0,2365.929999999935,-30.973601557388278,False,1,1,37,3,3,0,45.0,0.5834747008565494,52.035264261079156,35.75099555073335,-24.182006090446677,-67.64009146579035,0.012659445160158366
IT2,5,5,390,153.84615384615384,4,2,True,"[74, 74, 74]","[906, 1231, 1608]",74.79787473312055,12.0,4086.8400000035763,-62.79787473312055,True,2,1,38,3,3,0,45.0,0.5834747008565494,52.035264261079156,35.75099555073335,-57.76623844610788,-161.57938417164704,0.06646458511179701
IT2,5,4,329,182.370820668693,5,0,True,,,87.06720173383901,73.0,2018.449999995879,-14.067201733839013,False,1,1,39,3,3,0,45.0,0.5834747008565494,52.035264261079156,35.75099555073335,-5.539051546371439,-15.493419025243952,0.00017799522642004224
IT2,5,2,425,141.1764705882353,4,2,True,"[74, 74, 74]","[766, 1109, 1492]",68.5984388693479,50.0,3386.4699999976438,-18.598438869347902,True,2,1,40,3,3,0,45.0,0.5834747008565494,52.035264261079156,35.75099555073335,-15.333518366452012,-42.889766089709575,0.003388969294086714
IT2,5,3,329,182.370820668693,5,1,True,"[74, 74, 74, 74, 74]","[406, 644, 819, 1016, 1202]",87.06720173383901,81.0,3024.6299999998882,-6.067201733839013,True,2,1,41,3,3,0,45.0,0.5834747008565494,52.035264261079156,35.75099555073335,2.4609484536285606,6.883580207259654,0.0011205595688126352
IT2,5,7,504,119.04761904761905,3,2,True,"[74, 74, 74, 74]","[668, 1022, 1649, 1997]",56.30039424560527,77.0,2278.8650000002235,20.69960575439473,True,2,1,42,3,3,0,45.0,0.5834747008565494,52.035264261079156,35.75099555073335,20.459828406070848,57.22869556747535,0.004816108724155286
IT2,5,3,843,71.17437722419929,1,2,True,,,19.194949373496982,6.0,1678.4150000021327,-13.194949373496982,False,1,1,43,3,3,0,45.0,0.5834747008565494,52.035264261079156,35.75099555073335,-24.009039703314656,-67.15628287677758,0.02207181935733286
IT2,5,6,774,77.51937984496124,2,1,True,,,25.354902613380577,50.0,2437.675000000978,24.645097386619423,False,1,1,44,3,3,0,45.0,0.5834747008565494,52.035264261079156,35.75099555073335,15.586471079249264,43.59730642222506,0.0029244309322135767
IT2,5,3,390,153.84615384615384,4,2,True,,,74.79787473312055,50.0,528.7600000011735,-24.79787473312055,False,1,1,45,3,3,0,45.0,0.5834747008565494,52.035264261079156,35.75099555073335,-19.766238446107877,-55.2886378172549,0.006825963017606048
IT2,5,6,918,65.359477124183,1,2,True,[74],[743],13.046873249910696,4.0,4623.5149999993155,-9.046873249910696,True,2,1,46,3,3,0,45.0,0.5834747008565494,52.035264261079156,35.75099555073335,-21.61304286051659,-60.454380437730904,0.02477344227056624
IT2,5,3,504,119.04761904761905,3,1,True,,,56.30039424560527,50.0,704.0800000032177,-6.300394245605268,False,1,1,47,3,3,0,45.0,0.5834747008565494,52.035264261079156,35.75099555073335,-6.540171593929152,-18.293676842224315,0.000551511701260245
IT2,5,5,918,65.359477124183,1,1,True,"[74, 74, 74]","[563, 1196, 2548]",13.046873249910696,50.0,1278.0600000041304,36.953126750089304,True,2,1,48,3,3,0,45.0,0.5834747008565494,52.035264261079156,35.75099555073335,24.38695713948341,68.21336514916483,0.012524826118914497
IT2,5,4,550,109.0909090909091,3,0,True,"[74, 74]","[639, 1950]",50.0,50.0,2894.2900000037625,0.0,True,2,1,49,3,3,0,45.0,0.5834747008565494,52.035264261079156,35.75099555073335,-2.0352642610791563,-5.692888351013787,0.00010411146753467808
IT2,5,2,329,182.370820668693,5,0,True,,,87.06720173383901,94.0,2834.414999997476,6.932798266160987,False,1,1,50,3,3,0,45.0,0.5834747008565494,52.035264261079156,35.75099555073335,15.46094845362856,43.24620396007801,0.01200145640642142
IT2,5,5,550,109.0909090909091,3,1,True,"[74, 74, 74, 74]","[261, 1016, 1562, 2130]",50.0,50.0,5217.94999999844,0.0,True,2,1,51,3,3,0,45.0,0.5834747008565494,52.035264261079156,35.75099555073335,-2.0352642610791563,-5.692888351013787,0.00010411146753467808
IT2,5,7,843,71.17437722419929,1,1,True,"[74, 74, 74]","[377, 1231, 3187]",19.194949373496982,50.0,1932.020000000135,30.805050626503018,True,2,1,52,3,3,0,45.0,0.5834747008565494,52.035264261079156,35.75099555073335,19.990960296685344,55.91721290199225,0.006435754156178107
IT2,5,2,599,100.1669449081803,3,0,True,"[74, 74, 74, 74]","[499, 1271, 1800, 2235]",43.84378078116181,50.0,7756.694999996456,6.156219218838189,True,2,1,53,3,3,0,45.0,0.5834747008565494,52.035264261079156,35.75099555073335,2.366555056961303,6.619550086662576,4.915384989618251e-06
IT2,5,7,710,84.50704225352112,2,1,True,"[74, 74, 74, 74]","[430, 1358, 1927, 2537]",31.580629700998873,50.0,5580.504999998142,18.419370299001127,True,2,1,54,3,3,0,45.0,0.5834747008565494,52.035264261079156,35.75099555073335,11.134952251058827,31.145852246988458,0.001073502141442524
IT2,5,6,425,141.1764705882353,4,2,True,,,68.5984388693479,50.0,3383.605000002659,-18.598438869347902,False,1,1,55,3,3,0,45.0,0.5834747008565494,52.035264261079156,35.75099555073335,-15.333518366452012,-42.889766089709575,0.003388969294086714
IT2,5,3,652,92.02453987730061,2,2,True,"[74, 74, 74, 74]","[580, 1231, 1892, 2485]",37.727982709047225,50.0,1336.4749999964843,12.272017290952775,True,2,1,56,3,3,0,45.0,0.5834747008565494,52.035264261079156,35.75099555073335,6.739472450268352,18.851146230891764,0.00025430656561703014
IT2,5,7,463,129.58963282937364,4,2,True,"[74, 74]","[1324, 1556]",62.42097125758927,82.0,6087.854999998002,19.579028742410728,True,2,1,57,3,3,0,45.0,0.5834747008565494,52.035264261079156,35.75099555073335,21.08349397560363,58.973166063822106,0.006324144581183135
IT2,5,4,843,71.17437722419929,1,2,True,"[74, 74, 74]","[267, 1283, 2914]",19.194949373496982,50.0,1207.2800000023562,30.805050626503018,True,2,1,58,3,3,0,45.0,0.5834747008565494,52.035264261079156,35.75099555073335,19.990960296685344,55.91721290199225,0.006435754156178107
IT2,5,6,599,100.1669449081803,3,2,True,"[74, 74]","[1707, 2363]",43.84378078116181,50.0,1742.6599999963073,6.156219218838189,True,2,1,59,3,3,0,45.0,0.5834747008565494,52.035264261079156,35.75099555073335,2.366555056961303,6.619550086662576,4.915384989618251e-06
IT2,5,2,710,84.50704225352112,2,2,True,[74],[2833],31.580629700998873,68.0,5066.270000002929,36.41937029900113,True,2,1,60,3,3,0,45.0,0.5834747008565494,52.035264261079156,35.75099555073335,29.134952251058827,81.49410052012158,0.011339555358695682
IT2,5,7,425,141.1764705882353,4,1,True,"[74, 74, 74]","[546, 1219, 1649]",68.5984388693479,50.0,3930.4950000005774,-18.598438869347902,True,2,2,61,3,3,0,45.0,0.5834747008565494,52.035264261079156,35.75099555073335,-15.333518366452012,-42.889766089709575,0.003388969294086714
IT2,5,3,774,77.51937984496124,2,0,True,"[74, 74, 74, 74, 74, 74]","[186, 604, 888, 2067, 2490, 2966]",25.354902613380577,50.0,5015.970000000438,24.645097386619423,True,2,2,62,3,3,0,45.0,0.5834747008565494,52.035264261079156,35.75099555073335,15.586471079249264,43.59730642222506,0.0029244309322135767
IT2,5,6,463,129.58963282937364,4,0,True,"[74, 74, 74]","[766, 1242, 1892]",62.42097125758927,50.0,3809.8899999967543,-12.420971257589272,True,2,2,63,3,3,0,45.0,0.5834747008565494,52.035264261079156,35.75099555073335,-10.91650602439637,-30.53483086619232,0.0015073346058177492
IT2,5,7,918,65.359477124183,1,2,True,"[74, 74]","[1556, 2101]",13.046873249910696,50.0,3450.5700000009965,36.953126750089304,True,2,2,64,3,3,0,45.0,0.5834747008565494,52.035264261079156,35.75099555073335,24.38695713948341,68.21336514916483,0.012524826118914497
IT2,5,6,710,84.50704225352112,2,2,True,"[74, 74, 74, 74]","[784, 1382, 2096, 2769]",31.580629700998873,50.0,1273.4100000016624,18.419370299001127,True,2,2,65,3,3,0,45.0,0.5834747008565494,52.035264261079156,35.75099555073335,11.134952251058827,31.145852246988458,0.001073502141442524
IT2,5,7,358,167.5977653631285,5,0,True,"[74, 74]","[517, 958]",80.97360155738828,50.0,8573.299999996438,-30.973601557388278,True,2,2,66,3,3,0,45.0,0.5834747008565494,52.035264261079156,35.75099555073335,-24.182006090446677,-67.64009146579035,0.012659445160158366
IT2,5,6,843,71.17437722419929,1,0,True,"[74, 74, 74]","[2328, 2810, 3413]",19.194949373496982,50.0,2835.835000005318,30.805050626503018,True,2,2,67,3,3,0,45.0,0.5834747008565494,52.035264261079156,35.75099555073335,19.990960296685344,55.91721290199225,0.006435754156178107
IT2,5,7,774,77.51937984496124,2,2,True,"[74, 74, 74, 74]","[1126, 1573, 2078, 2920]",25.354902613380577,50.0,5432.83499999973,24.645097386619423,True,2,2,68,3,3,0,45.0,0.5834747008565494,52.035264261079156,35.75099555073335,15.586471079249264,43.59730642222506,0.0029244309322135767
IT2,5,5,504,119.04761904761905,3,0,True,"[74, 74, 74, 74]","[424, 975, 1480, 1863]",56.30039424560527,50.0,4185.160000000964,-6.300394245605268,True,2,2,69,3,3,0,45.0,0.5834747008565494,52.035264261079156,35.75099555073335,-6.540171593929152,-18.293676842224315,0.000551511701260245
IT2,5,4,918,65.359477124183,1,1,True,"[74, 74, 74, 74, 74]","[592, 1393, 2415, 2937, 3675]",13.046873249910696,50.0,1963.1249999947613,36.953126750089304,True,2,2,70,3,3,0,45.0,0.5834747008565494,52.035264261079156,35.75099555073335,24.38695713948341,68.21336514916483,0.012524826118914497
IT2,5,2,550,109.0909090909091,3,1,True,[74],[493],50.0,16.0,6412.270000000717,-34.0,True,2,2,71,3,3,0,45.0,0.5834747008565494,52.035264261079156,35.75099555073335,-36.035264261079156,-100.79513508915412,0.015383083697141147
IT2,5,5,425,141.1764705882353,4,1,True,"[74, 74, 74]","[551, 1010, 1689]",68.5984388693479,77.0,4418.864999999641,8.401561130652098,True,2,2,72,3,3,0,45.0,0.5834747008565494,52.035264261079156,35.75099555073335,11.666481633547988,32.632606319990096,0.0027514523776220262
IT2,5,4,774,77.51937984496124,2,0,True,"[74, 74, 74]","[354, 2618, 3077]",25.354902613380577,50.0,9775.59000000474,24.645097386619423,True,2,2,73,3,3,0,45.0,0.5834747008565494,52.035264261079156,35.75099555073335,15.586471079249264,43.59730642222506,0.0029244309322135767
IT2,5,2,390,153.84615384615384,4,0,True,"[74, 74]","[1051, 1457]",74.79787473312055,75.0,5372.84999999986,0.20212526687944887,True,2,2,74,3,3,0,45.0,0.5834747008565494,52.035264261079156,35.75099555073335,5.233761553892123,14.639484784318862,0.0010650951685058393
IT2,5,3,550,109.0909090909091,3,2,True,"[74, 74, 74]","[493, 1068, 1567]",50.0,50.0,3651.709999998333,0.0,True,2,2,75,3,3,0,45.0,0.5834747008565494,52.035264261079156,35.75099555073335,-2.0352642610791563,-5.692888351013787,0.00010411146753467808
IT2,5,4,463,129.58963282937364,4,1,True,,,62.42097125758927,50.0,2869.46500000346,-12.420971257589272,False,1,2,76,3,3,0,45.0,0.5834747008565494,52.035264261079156,35.75099555073335,-10.91650602439637,-30.53483086619232,0.0015073346058177492
IT2,5,2,843,71.17437722419929,1,2,True,"[74, 74, 74, 74]","[639, 1080, 2432, 3193]",19.194949373496982,50.0,3875.7549999937182,30.805050626503018,True,2,2,77,3,3,0,45.0,0.5834747008565494,52.035264261079156,35.75099555073335,19.990960296685344,55.91721290199225,0.006435754156178107
IT2,5,3,358,167.5977653631285,5,0,True,,,80.97360155738828,50.0,4450.820000005537,-30.973601557388278,False,1,2,78,3,3,0,45.0,0.5834747008565494,52.035264261079156,35.75099555073335,-24.182006090446677,-67.64009146579035,0.012659445160158366
IT2,5,5,774,77.51937984496124,2,2,True,"[74, 74, 74]","[221, 1858, 2444]",25.354902613380577,50.0,766.4549999972805,24.645097386619423,True,2,2,79,3,3,0,45.0,0.5834747008565494,52.035264261079156,35.75099555073335,15.586471079249264,43.59730642222506,0.0029244309322135767
IT2,5,3,918,65.359477124183,1,1,True,"[74, 74, 74]","[505, 1614, 2955]",13.046873249910696,10.0,3758.304999995744,-3.0468732499106963,True,2,2,80,3,3,0,45.0,0.5834747008565494,52.035264261079156,35.75099555073335,-15.61304286051659,-43.6716310133532,0.014949561336882024
IT2,5,6,302,198.67549668874173,5,2,True,"[74, 74, 74]","[464, 679, 882]",93.24415345434716,87.0,2651.190000004135,-6.244153454347156,True,2,2,81,3,3,0,45.0,0.5834747008565494,52.035264261079156,35.75099555073335,4.044304984088939,11.312426190621085,0.002768150942262467
IT2,5,4,599,100.1669449081803,3,1,True,"[74, 74, 74, 74]","[604, 1173, 1771, 2432]",43.84378078116181,67.0,4099.80500000529,23.15621921883819,True,2,2,82,3,3,0,45.0,0.5834747008565494,52.035264261079156,35.75099555073335,19.366555056961303,54.17067345573274,0.00368388552610875
IT2,5,5,358,167.5977653631285,5,1,True,"[74, 74, 74, 74]","[859, 1074, 1248, 1451]",80.97360155738828,98.0,2755.9049999981653,17.026398442611722,True,2,2,83,3,3,0,45.0,0.5834747008565494,52.035264261079156,35.75099555073335,23.817993909553323,66.62190392923128,0.018831556236798223
IT2,5,6,550,109.0909090909091,3,1,True,"[74, 74, 74]","[377, 935, 1591]",50.0,50.0,3348.639999996405,0.0,True,2,2,84,3,3,0,45.0,0.5834747008565494,52.035264261079156,35.75099555073335,-2.0352642610791563,-5.692888351013787,0.00010411146753467808
IT2,5,3,463,129.58963282937364,4,1,True,"[74, 74, 74, 74]","[348, 842, 1120, 1724]",62.42097125758927,73.0,7034.554999998305,10.579028742410728,True,2,2,85,3,3,0,45.0,0.5834747008565494,52.035264261079156,35.75099555073335,12.08349397560363,33.799041927255544,0.002138032446356046
IT2,5,4,302,198.67549668874173,5,2,True,"[74, 74, 74, 74]","[592, 807, 993, 1184]",93.24415345434716,92.0,3977.6649999986403,-1.2441534543471562,True,2,2,86,3,3,0,45.0,0.5834747008565494,52.035264261079156,35.75099555073335,9.044304984088939,25.298050710935836,0.0072988389710214804
IT2,5,2,774,77.51937984496124,2,1,True,"[74, 74, 74]","[41, 586, 2415]",25.354902613380577,9.0,3568.4699999983422,-16.354902613380577,True,2,2,87,3,3,0,45.0,0.5834747008565494,52.035264261079156,35.75099555073335,-25.413528920750736,-71.08481464435592,0.01819318470596929
IT2,5,5,1000,60.0,1,0,True,"[74, 74, 74, 74, 74, 74, 74]","[139, 673, 1190, 1759, 2252, 3437, 3860]",6.875176187496734,50.0,3440.445000000298,43.124823812503266,True,2,2,88,3,3,0,45.0,0.5834747008565494,52.035264261079156,35.75099555073335,28.79984342386012,80.55675927399274,0.022446374403045904
IT2,5,2,358,167.5977653631285,5,2,True,"[74, 74]","[354, 1016]",80.97360155738828,72.0,3685.839999998454,-8.973601557388278,True,2,2,89,3,3,0,45.0,0.5834747008565494,52.035264261079156,35.75099555073335,-2.182006090446677,-6.103343576405436,3.8065140068109698e-06
IT2,5,7,550,109.0909090909091,3,0,True,"[74, 74, 74]","[836, 1254, 1800]",50.0,50.0,4088.649999998044,0.0,True,2,2,90,3,3,0,45.0,0.5834747008565494,52.035264261079156,35.75099555073335,-2.0352642610791563,-5.692888351013787,0.00010411146753467808
IT2,7,6,463,129.58963282937364,4,0,True,"[74, 74, 74, 74, 74]","[240, 589, 1000, 1429, 1869]",62.42097125758927,64.0,1936.7649999912828,1.5790287424107277,True,2,0,1,3,3,0,21.0,0.9351444042562732,49.3562883612882,56.09051179873147,0.7097389412014934,1.2653458106216544,1.2252181484772862e-05
IT2,7,3,710,84.50704225352112,2,0,True,"[74, 74, 74, 74, 74]","[248, 608, 1128, 1659, 2280]",31.580629700998873,18.0,2524.4149998761714,-13.580629700998873,True,2,0,2,3,3,0,21.0,0.9351444042562732,49.3562883612882,56.09051179873147,-10.693250219661667,-19.064276428840685,0.012950340008054338
IT2,7,7,329,182.370820668693,5,0,True,"[74, 74, 74, 74]","[261, 651, 960, 1309]",87.06720173383901,83.0,2764.064999995753,-4.067201733839013,True,2,0,3,3,3,0,21.0,0.9351444042562732,49.3562883612882,56.09051179873147,-7.938654685245339,-14.153293365786116,0.006173891961634537
IT2,7,4,774,77.51937984496124,2,1,True,"[74, 74, 74, 74]","[309, 811, 1651, 2440]",25.354902613380577,24.0,1517.1499999705702,-1.3549026133805775,True,2,0,4,3,3,0,21.0,0.9351444042562732,49.3562883612882,56.09051179873147,2.290834153613055,4.084174096740662,4.488433494874552e-05
IT2,7,3,504,119.04761904761905,3,0,True,"[74, 74, 74, 74]","[251, 661, 1061, 1611]",56.30039424560527,50.0,1499.2499998770654,-6.300394245605268,True,2,0,5,3,3,0,21.0,0.9351444042562732,49.3562883612882,56.09051179873147,-6.424135116683843,-11.453158316214775,0.0026606237231547097
IT2,7,2,918,65.359477124183,1,1,True,"[74, 74, 74, 74, 74]","[251, 691, 1221, 2069, 3000]",13.046873249910696,0.0,2417.6350000780076,-13.046873249910696,True,2,0,6,3,3,0,21.0,0.9351444042562732,49.3562883612882,56.09051179873147,-7.9018925217701295,-14.087752577698598,0.02104611493070244
IT2,7,6,652,92.02453987730061,2,1,True,"[74, 74, 74, 74]","[259, 669, 1419, 2128]",37.727982709047225,33.0,2137.875000014901,-4.727982709047225,True,2,0,7,3,3,0,21.0,0.9351444042562732,49.3562883612882,56.09051179873147,-2.5894137482397355,-4.616491569075498,0.00131356107333538
IT2,7,7,599,100.1669449081803,3,1,True,"[74, 74, 74, 74]","[248, 699, 1309, 1880]",43.84378078116181,50.0,1199.06000001356,6.156219218838189,True,2,0,8,3,3,0,21.0,0.9351444042562732,49.3562883612882,56.09051179873147,7.5498213733082125,13.46006861267213,0.0018358052334540964
IT2,7,6,1000,60.0,1,1,True,"[74, 74, 74, 74]","[280, 1299, 2280, 3179]",6.875176187496734,6.0,1567.005000077188,-0.8751761874967343,True,2,0,9,3,3,0,21.0,0.9351444042562732,49.3562883612882,56.09051179873147,5.021580416180406,8.952637897474084,8.851468530892571e-05
IT2,7,7,710,84.50704225352112,2,1,True,"[74, 74, 74, 74]","[261, 691, 1571, 2261]",31.580629700998873,33.0,2831.9749999791384,1.4193702990011268,True,2,0,10,3,3,0,21.0,0.9351444042562732,49.3562883612882,56.09051179873147,4.306749780338333,7.678214447021203,0.00023529010606136507
IT2,7,3,918,65.359477124183,1,2,True,"[74, 74, 74, 74]","[301, 931, 1960, 2880]",13.046873249910696,16.0,2264.82000015676,2.9531267500893037,True,2,0,11,3,3,0,21.0,0.9351444042562732,49.3562883612882,56.09051179873147,8.09810747822987,14.43757102322075,0.002686244339967935
IT2,7,5,425,141.1764705882353,4,1,True,"[74, 74, 74, 74]","[261, 691, 971, 1320]",68.5984388693479,85.0,1955.470000160858,16.401561130652098,True,2,0,12,3,3,0,21.0,0.9351444042562732,49.3562883612882,56.09051179873147,14.779792541928913,26.349897813311035,0.016644740403049082
IT2,7,2,329,182.370820668693,5,0,True,"[74, 74, 74, 74]","[251, 640, 931, 1171]",87.06720173383901,99.0,3434.6749999094754,11.932798266160987,True,2,0,13,3,3,0,21.0,0.9351444042562732,49.3562883612882,56.09051179873147,8.06134531475466,14.372030235133234,0.013981238884706513
IT2,7,4,463,129.58963282937364,4,2,True,"[74, 74, 74, 74, 74]","[269, 621, 1029, 1469, 1909]",62.42097125758927,67.0,1942.9999999701977,4.579028742410728,True,2,0,14,3,3,0,21.0,0.9351444042562732,49.3562883612882,56.09051179873147,3.7097389412014934,6.613843985794032,0.00071944914902159
IT2,7,5,918,65.359477124183,1,1,True,"[74, 74, 74, 74, 74]","[280, 739, 1371, 2069, 2931]",13.046873249910696,0.0,3261.6949998773634,-13.046873249910696,True,2,0,15,3,3,0,21.0,0.9351444042562732,49.3562883612882,56.09051179873147,-7.9018925217701295,-14.087752577698598,0.02104611493070244
IT2,7,4,504,119.04761904761905,3,2,True,"[74, 74, 74, 74, 74]","[240, 680, 1091, 1571, 2040]",56.30039424560527,50.0,824.8299998231232,-6.300394245605268,True,2,0,16,3,3,0,21.0,0.9351444042562732,49.3562883612882,56.09051179873147,-6.424135116683843,-11.453158316214775,0.0026606237231547097
IT2,7,3,425,141.1764705882353,4,2,True,"[74, 74, 74, 74, 74]","[240, 640, 949, 1339, 1731]",68.5984388693479,85.0,3260.9899998642504,16.401561130652098,True,2,0,17,3,3,0,21.0,0.9351444042562732,49.3562883612882,56.09051179873147,14.779792541928913,26.349897813311035,0.016644740403049082
