experiment,subject,pitch,ioi,tempo,tempo_range,loudness,tap_condition,key_press,tap_times,true_score,response,rt,error,tapped,tap_type,block,trial,test_correct,test_incorrect,test_skipped,extreme_responses,pearsonr,intercept,slope,residual,illusory_tempo,cooks
IT2,1,4,710,84.50704225352112,2,0,False,,,31.580629700998873,27.0,4512.719999998808,-4.580629700998873,False,0,0,1,4,2,0,7.0,0.9169932056145611,48.94083866008602,44.636415557812505,-5.497345320497153,-8.182459394573437,0.002697632735709417
IT2,1,7,329,182.370820668693,5,1,False,,,87.06720173383901,90.0,4844.2550000036135,2.9327982661609866,False,0,0,2,4,2,0,7.0,0.9169932056145611,48.94083866008602,44.636415557812505,7.96822093677585,13.171752377991666,0.014412209435776063
IT2,1,6,710,84.50704225352112,2,2,False,,,31.580629700998873,31.0,2583.980000053998,-0.5806297009988732,False,0,0,3,4,2,0,7.0,0.9169932056145611,48.94083866008602,44.636415557812505,-1.4973453204971534,-2.298364049009804,0.00024385785073446868
IT2,1,4,358,167.5977653631285,5,0,False,,,80.97360155738828,83.0,4429.515000025276,2.026398442611722,False,0,0,4,4,2,0,7.0,0.9169932056145611,48.94083866008602,44.636415557812505,6.408150331160144,10.463005207766278,0.007539516395626468
IT2,1,5,550,109.0909090909091,3,1,False,,,50.0,50.0,582.8299999702722,0.0,False,0,0,5,4,2,0,7.0,0.9169932056145611,48.94083866008602,44.636415557812505,1.0591613399139774,1.658344215764965,9.84876725963759e-05
IT2,1,3,302,198.67549668874173,5,0,False,,,93.24415345434716,79.0,1621.8649999937043,-14.244153454347156,False,0,0,6,4,2,0,7.0,0.9169932056145611,48.94083866008602,44.636415557812505,-8.54611874076707,-12.428136682879654,0.010658113304384117
IT2,1,2,425,141.1764705882353,4,2,False,,,68.5984388693479,48.0,4346.949999977369,-20.598438869347902,False,0,0,7,4,2,0,7.0,0.9169932056145611,48.94083866008602,44.636415557812505,-17.54419158206173,-23.84802306295182,0.023201449994047958
IT2,1,7,1000,60.0,1,1,False,,,6.875176187496734,0.0,2752.6850000140257,-6.875176187496734,False,0,0,8,4,2,0,7.0,0.9169932056145611,48.94083866008602,44.636415557812505,-10.442087529039142,-14.968842368084315,0.02723096955981754
IT2,1,3,710,84.50704225352112,2,0,False,,,31.580629700998873,32.0,3271.3000000221655,0.41937029900112677,False,0,0,9,4,2,0,7.0,0.9169932056145611,48.94083866008602,44.636415557812505,-0.4973453204971534,-0.7693398078738535,4.270950167395749e-05
IT2,1,6,1000,60.0,1,1,False,,,6.875176187496734,24.0,3935.044999991078,17.124823812503266,False,0,0,10,4,2,0,7.0,0.9169932056145611,48.94083866008602,44.636415557812505,13.557912470960858,23.434104877305018,0.03399216472447493
IT2,1,2,710,84.50704225352112,2,2,False,,,31.580629700998873,33.0,2266.8849999899976,1.4193702990011268,False,0,0,11,4,2,0,7.0,0.9169932056145611,48.94083866008602,44.636415557812505,0.5026546795028466,0.7836135630788531,6.479301486736444e-06
IT2,1,7,599,100.1669449081803,3,1,False,,,43.84378078116181,47.0,1542.2249999828637,3.1562192188381886,False,0,0,12,4,2,0,7.0,0.9169932056145611,48.94083866008602,44.636415557812505,3.5549925262550417,5.675674771215642,0.000781580457011166
IT2,1,2,843,71.17437722419929,1,0,False,,,19.194949373496982,9.0,1924.8549999902025,-10.194949373496982,False,0,0,13,4,2,0,7.0,0.9169932056145611,48.94083866008602,44.636415557812505,-12.4402978392052,-17.566816658559354,0.022457536879910756
IT2,1,7,425,141.1764705882353,4,1,False,,,68.5984388693479,75.0,1537.7999999909662,6.401561130652098,False,0,0,14,4,2,0,7.0,0.9169932056145611,48.94083866008602,44.636415557812505,9.455808417938272,15.8164896708687,0.008657607570357962
IT2,1,5,1000,60.0,1,0,False,,,6.875176187496734,6.0,2059.290000004694,-0.8751761874967343,False,0,0,15,4,2,0,7.0,0.9169932056145611,48.94083866008602,44.636415557812505,-4.442087529039142,-6.66546636852799,0.006032808482270369
IT2,1,4,463,129.58963282937364,4,1,False,,,62.42097125758927,57.0,2888.035000010859,-5.420971257589272,False,0,0,16,4,2,0,7.0,0.9169932056145611,48.94083866008602,44.636415557812505,-3.0293913537940185,-4.59532677498643,0.00039187906817042165
IT2,1,5,710,84.50704225352112,2,2,False,,,31.580629700998873,30.0,2363.4949999977835,-1.5806297009988732,False,0,0,17,4,2,0,7.0,0.9169932056145611,48.94083866008602,44.636415557812505,-2.4973453204971534,-3.8038278792258216,0.0006099243486682702
IT2,1,2,550,109.0909090909091,3,2,False,,,50.0,47.0,2237.1550000389107,-3.0,False,0,0,18,4,2,0,7.0,0.9169932056145611,48.94083866008602,44.636415557812505,-1.9408386600860226,-2.9689129813545896,0.00015235640989175092
IT2,1,5,302,198.67549668874173,5,1,False,,,93.24415345434716,83.0,1861.54000001261,-10.244153454347156,False,0,0,19,4,2,0,7.0,0.9169932056145611,48.94083866008602,44.636415557812505,-4.546118740767071,-6.81612409847649,0.0020272923343697996
IT2,1,7,710,84.50704225352112,2,0,False,,,31.580629700998873,27.0,1554.550000000745,-4.580629700998873,False,0,0,20,4,2,0,7.0,0.9169932056145611,48.94083866008602,44.636415557812505,-5.497345320497153,-8.182459394573437,0.0026976327357094163
IT2,1,2,302,198.67549668874173,5,2,False,,,93.24415345434716,73.0,1002.985000028275,-20.244153454347156,False,0,0,21,4,2,0,7.0,0.9169932056145611,48.94083866008602,44.636415557812505,-14.54611874076707,-20.218844792858516,0.036312028274204294
IT2,1,6,390,153.84615384615384,4,1,False,,,74.79787473312055,87.0,1096.5950000099838,12.202125266879449,False,0,0,22,4,2,0,7.0,0.9169932056145611,48.94083866008602,44.636415557812505,15.921396509151009,28.048535182582434,0.02974321662016926
IT2,1,3,599,100.1669449081803,3,2,False,,,43.84378078116181,50.0,891.2600000039674,6.156219218838189,False,0,0,23,4,2,0,7.0,0.9169932056145611,48.94083866008602,44.636415557812505,6.554992526255042,10.71517851862403,0.0025843611145748794
IT2,1,6,329,182.370820668693,5,0,False,,,87.06720173383901,50.0,6859.735000005458,-37.06720173383901,False,0,0,24,4,2,0,7.0,0.9169932056145611,48.94083866008602,44.636415557812505,-32.03177906322415,-39.18982682366059,0.1591489023255473
IT2,1,5,425,141.1764705882353,4,1,False,,,68.5984388693479,67.0,2160.6899999896996,-1.598438869347902,False,0,0,25,4,2,0,7.0,0.9169932056145611,48.94083866008602,44.636415557812505,1.4558084179382718,2.2864338548426746,0.0004139224523590352
IT2,1,6,550,109.0909090909091,3,2,False,,,50.0,50.0,754.3799999984913,0.0,False,0,0,26,4,2,0,7.0,0.9169932056145611,48.94083866008602,44.636415557812505,1.0591613399139774,1.658344215764965,9.84876725963759e-05
IT2,1,4,918,65.359477124183,1,0,False,,,13.046873249910696,14.0,2016.364999988582,0.9531267500893037,False,0,0,27,4,2,0,7.0,0.9169932056145611,48.94083866008602,44.636415557812505,-1.9517362245359493,-2.9853317183253223,0.0012077957745962409
IT2,1,3,425,141.1764705882353,4,2,False,,,68.5984388693479,58.0,2534.990000014659,-10.598438869347902,False,0,0,28,4,2,0,7.0,0.9169932056145611,48.94083866008602,44.636415557812505,-7.544191582061728,-11.05498096469806,0.0037753337972053014
IT2,1,4,504,119.04761904761905,3,0,False,,,56.30039424560527,50.0,642.5000000162981,-6.300394245605268,False,0,0,29,4,2,0,7.0,0.9169932056145611,48.94083866008602,44.636415557812505,-4.565378974583766,-6.843990027735378,0.0009857194830872678
IT2,1,3,1000,60.0,1,2,False,,,6.875176187496734,20.0,1952.9900000197813,13.124823812503266,False,0,0,30,4,2,0,7.0,0.9169932056145611,48.94083866008602,44.636415557812505,9.557912470960858,16.000267818970666,0.01591088414613461
IT2,1,4,652,92.02453987730061,2,1,False,,,37.727982709047225,37.0,2331.145000003744,-0.7279827090472253,False,0,1,31,4,2,0,7.0,0.9169932056145611,48.94083866008602,44.636415557812505,-0.9852613894534485,-1.5183417190485091,7.278945677459536e-05
IT2,1,7,918,65.359477124183,1,0,False,,,13.046873249910696,13.0,1418.2350000482984,-0.0468732499106963,False,0,1,32,4,2,0,7.0,0.9169932056145611,48.94083866008602,44.636415557812505,-2.9517362245359493,-4.480210209118761,0.0022784988440565945
IT2,1,6,652,92.02453987730061,2,1,False,,,37.727982709047225,36.0,1896.805000025779,-1.7279827090472253,False,0,1,33,4,2,0,7.0,0.9169932056145611,48.94083866008602,44.636415557812505,-1.9852613894534485,-3.0358247482583653,0.00027989353509207544
IT2,1,3,918,65.359477124183,1,0,False,,,13.046873249910696,22.0,2235.3499999735504,8.953126750089304,False,0,1,34,4,2,0,7.0,0.9169932056145611,48.94083866008602,44.636415557812505,6.048263775464051,9.847395236327094,0.0047732600589976614
IT2,1,7,652,92.02453987730061,2,2,False,,,37.727982709047225,38.0,2741.5000000037253,0.2720172909527747,False,0,1,35,4,2,0,7.0,0.9169932056145611,48.94083866008602,44.636415557812505,0.014738610546551456,0.022889820762921242,1.1110788605679897e-07
IT2,1,4,329,182.370820668693,5,2,False,,,87.06720173383901,93.0,2026.045000005979,5.932798266160987,False,0,1,36,4,2,0,7.0,0.9169932056145611,48.94083866008602,44.636415557812505,10.96822093677585,18.568732065553704,0.025272980584426983
IT2,1,3,774,77.51937984496124,2,1,False,,,25.354902613380577,29.0,3797.3149999743327,3.6450973866194225,False,0,1,37,4,2,0,7.0,0.9169932056145611,48.94083866008602,44.636415557812505,2.0605375081520485,3.2514971605742664,0.00029088910484543335
IT2,1,7,550,109.0909090909091,3,2,False,,,50.0,41.0,8407.944999984466,-9.0,False,0,1,38,4,2,0,7.0,0.9169932056145611,48.94083866008602,44.636415557812505,-7.940838660086023,-11.601147673207235,0.003235108331965577
IT2,1,2,652,92.02453987730061,2,0,False,,,37.727982709047225,31.0,20187.56500002928,-6.727982709047225,False,0,1,39,4,2,0,7.0,0.9169932056145611,48.94083866008602,44.636415557812505,-6.9852613894534485,-10.279624450639993,0.0033317998681135982
IT2,1,4,550,109.0909090909091,3,2,False,,,50.0,37.0,7032.250000047497,-13.0,False,0,1,40,4,2,0,7.0,0.9169932056145611,48.94083866008602,44.636415557812505,-11.940838660086023,-16.924981511467305,0.007493990685557814
IT2,1,2,918,65.359477124183,1,2,False,,,13.046873249910696,12.0,2052.235000010114,-1.0468732499106963,False,0,1,41,4,2,0,7.0,0.9169932056145611,48.94083866008602,44.636415557812505,-3.9517362245359493,-5.9520544336325,0.003686176603519288
IT2,1,5,504,119.04761904761905,3,0,False,,,56.30039424560527,71.0,1993.8550000078976,14.699605754394732,False,0,1,42,4,2,0,7.0,0.9169932056145611,48.94083866008602,44.636415557812505,16.434621025416234,29.073124707902586,0.016582398948387197
IT2,1,2,358,167.5977653631285,5,1,False,,,80.97360155738828,84.0,1746.8099999823608,3.026398442611722,False,0,1,43,4,2,0,7.0,0.9169932056145611,48.94083866008602,44.636415557812505,7.408150331160144,12.191744046859261,0.009675864645663461
IT2,1,6,843,71.17437722419929,1,2,False,,,19.194949373496982,24.0,2805.2199999801815,4.805050626503018,False,0,1,44,4,2,0,7.0,0.9169932056145611,48.94083866008602,44.636415557812505,2.5597021607947994,4.054950411568127,0.0005321546789427766
IT2,1,2,599,100.1669449081803,3,0,False,,,43.84378078116181,38.0,1554.6999999787658,-5.843780781161811,False,0,1,45,4,2,0,7.0,0.9169932056145611,48.94083866008602,44.636415557812505,-5.445007473744958,-8.107805210679462,0.0016550897192335217
IT2,1,5,463,129.58963282937364,4,0,False,,,62.42097125758927,73.0,1398.494999972172,10.579028742410728,False,0,1,46,4,2,0,7.0,0.9169932056145611,48.94083866008602,44.636415557812505,12.970608646205982,22.313492916908974,0.012410130952464947
IT2,1,6,504,119.04761904761905,3,0,False,,,56.30039424560527,55.0,2763.2050000247546,-1.3003942456052684,False,0,1,47,4,2,0,7.0,0.9169932056145611,48.94083866008602,44.636415557812505,0.4346210254162344,0.6771942426191918,4.541771588029224e-05
IT2,1,2,463,129.58963282937364,4,0,False,,,62.42097125758927,67.0,2441.110000014305,4.579028742410728,False,0,1,48,4,2,0,7.0,0.9169932056145611,48.94083866008602,44.636415557812505,6.9706086462059815,11.432044411275681,0.0038690892627268846
IT2,1,3,504,119.04761904761905,3,1,False,,,56.30039424560527,67.0,2254.060000006575,10.699605754394732,False,0,1,49,4,2,0,7.0,0.9169932056145611,48.94083866008602,44.636415557812505,12.434621025416234,21.299676853742845,0.009655875513464866
IT2,1,6,463,129.58963282937364,4,2,False,,,62.42097125758927,73.0,2813.2499999483116,10.579028742410728,False,0,1,50,4,2,0,7.0,0.9169932056145611,48.94083866008602,44.636415557812505,12.970608646205982,22.313492916908974,0.012410130952464947
IT2,1,7,302,198.67549668874173,5,2,False,,,93.24415345434716,86.0,1139.2699999851175,-7.244153454347156,False,0,1,51,4,2,0,7.0,0.9169932056145611,48.94083866008602,44.636415557812505,-1.5461187407670707,-2.3723342403049092,1.8658370386130404e-06
IT2,1,4,425,141.1764705882353,4,0,False,,,68.5984388693479,68.0,1284.7749999491498,-0.5984388693479019,False,0,1,52,4,2,0,7.0,0.9169932056145611,48.94083866008602,44.636415557812505,2.4558084179382718,3.887209884650963,0.0008662857083300422
IT2,1,5,358,167.5977653631285,5,0,False,,,80.97360155738828,95.0,1345.0549999834038,14.026398442611722,False,0,1,53,4,2,0,7.0,0.9169932056145611,48.94083866008602,44.636415557812505,18.408150331160144,33.08999060606691,0.0507408966050943
IT2,1,7,390,153.84615384615384,4,2,False,,,74.79787473312055,82.0,1658.4949999814853,7.202125266879449,False,0,1,54,4,2,0,7.0,0.9169932056145611,48.94083866008602,44.636415557812505,10.921396509151009,18.48254920231871,0.014727124106765464
IT2,1,6,302,198.67549668874173,5,1,False,,,93.24415345434716,75.0,1925.8000000263564,-18.244153454347156,False,0,1,55,4,2,0,7.0,0.9169932056145611,48.94083866008602,44.636415557812505,-12.54611874076707,-17.702164986818005,0.02606636548229108
IT2,1,4,843,71.17437722419929,1,1,False,,,19.194949373496982,13.0,1761.7500000051223,-6.194949373496982,False,0,1,56,4,2,0,7.0,0.9169932056145611,48.94083866008602,44.636415557812505,-8.4402978392052,-12.28411460379861,0.010762933335157803
IT2,1,3,358,167.5977653631285,5,1,False,,,80.97360155738828,77.0,7120.2850000117905,-3.973601557388278,False,0,1,57,4,2,0,7.0,0.9169932056145611,48.94083866008602,44.636415557812505,0.40815033116014376,0.6358187356869823,0.00031035455282123886
IT2,1,5,774,77.51937984496124,2,1,False,,,25.354902613380577,23.0,3611.6349999792874,-2.3549026133805775,False,0,1,58,4,2,0,7.0,0.9169932056145611,48.94083866008602,44.636415557812505,-3.9394624918479515,-5.934127603208551,0.001958400042408623
IT2,1,3,390,153.84615384615384,4,1,False,,,74.79787473312055,77.0,2152.529999963008,2.202125266879449,False,0,1,59,4,2,0,7.0,0.9169932056145611,48.94083866008602,44.636415557812505,5.921396509151009,9.631199181334992,0.004934852857695397
IT2,1,5,918,65.359477124183,1,2,False,,,13.046873249910696,21.0,2695.9849999984726,7.953126750089304,False,0,1,60,4,2,0,7.0,0.9169932056145611,48.94083866008602,44.636415557812505,5.048263775464051,8.154779971883727,0.0031481656084392916
IT2,1,5,390,153.84615384615384,4,2,False,,,74.79787473312055,72.0,2588.5049999924377,-2.797874733120551,False,0,2,61,4,2,0,7.0,0.9169932056145611,48.94083866008602,44.636415557812505,0.921396509151009,1.4410975696860988,0.00036640287295905757
IT2,1,4,1000,60.0,1,2,False,,,6.875176187496734,17.0,1503.8349999813363,10.124823812503266,False,0,2,62,4,2,0,7.0,0.9169932056145611,48.94083866008602,44.636415557812505,6.557912470960858,10.72019879685603,0.006800457575739947
IT2,1,7,358,167.5977653631285,5,0,False,,,80.97360155738828,71.0,2640.475000021979,-9.973601557388278,False,0,2,63,4,2,0,7.0,0.9169932056145611,48.94083866008602,44.636415557812505,-5.591849668839856,-8.317105862243803,0.002662211551301797
IT2,1,6,774,77.51937984496124,2,0,False,,,25.354902613380577,27.0,1985.4899999918416,1.6450973866194225,False,0,2,64,4,2,0,7.0,0.9169932056145611,48.94083866008602,44.636415557812505,0.0605375081520485,0.0940513078875486,1.1430870380636388e-05
IT2,1,3,843,71.17437722419929,1,1,False,,,19.194949373496982,17.0,2874.6549999923445,-2.194949373496982,False,0,2,65,4,2,0,7.0,0.9169932056145611,48.94083866008602,44.636415557812505,-4.440297839205201,-6.662872414250369,0.003321300668825331
IT2,1,6,358,167.5977653631285,5,2,False,,,80.97360155738828,74.0,2703.159999975469,-6.973601557388278,False,0,2,66,4,2,0,7.0,0.9169932056145611,48.94083866008602,44.636415557812505,-2.5918496688398562,-3.944895421375893,0.0002886556969007942
IT2,1,7,463,129.58963282937364,4,0,False,,,62.42097125758927,63.0,1757.030000037048,0.5790287424107277,False,0,2,67,4,2,0,7.0,0.9169932056145611,48.94083866008602,44.636415557812505,2.9706086462059815,4.721033203685111,0.0008645262916532536
IT2,1,6,918,65.359477124183,1,0,False,,,13.046873249910696,7.0,1159.5150000066496,-6.046873249910696,False,0,2,68,4,2,0,7.0,0.9169932056145611,48.94083866008602,44.636415557812505,-8.95173622453595,-12.977994460807853,0.015779185750867862
IT2,1,2,774,77.51937984496124,2,1,False,,,25.354902613380577,28.0,1866.6200000443496,2.6450973866194225,False,0,2,69,4,2,0,7.0,0.9169932056145611,48.94083866008602,44.636415557812505,1.0605375081520485,1.6605166935852747,4.674808590646902e-05
IT2,1,3,550,109.0909090909091,3,0,False,,,50.0,40.0,2752.295000012964,-10.0,False,0,2,70,4,2,0,7.0,0.9169932056145611,48.94083866008602,44.636415557812505,-8.940838660086023,-12.963266879454213,0.00413455033994791
IT2,1,2,390,153.84615384615384,4,1,False,,,74.79787473312055,26.0,28770.674999977928,-48.79787473312055,False,0,2,71,4,2,0,7.0,0.9169932056145611,48.94083866008602,44.636415557812505,-45.07860349084899,-50.342154948636946,0.20343835673592317
IT2,1,7,774,77.51937984496124,2,1,False,,,25.354902613380577,31.0,3879.8599999863654,5.6450973866194225,False,0,2,72,4,2,0,7.0,0.9169932056145611,48.94083866008602,44.636415557812505,4.0605375081520485,6.508543980375226,0.0014056425529627573
IT2,1,2,1000,60.0,1,1,False,,,6.875176187496734,26.0,3220.8100000279956,19.124823812503266,False,0,2,73,4,2,0,7.0,0.9169932056145611,48.94083866008602,44.636415557812505,15.557912470960858,27.32780782400783,0.0455759672212797
IT2,1,4,302,198.67549668874173,5,1,False,,,93.24415345434716,74.0,2599.114999989979,-19.244153454347156,False,0,2,74,4,2,0,7.0,0.9169932056145611,48.94083866008602,44.636415557812505,-13.54611874076707,-18.970274908534968,0.030977402153001043
IT2,1,2,504,119.04761904761905,3,1,False,,,56.30039424560527,56.0,4389.474999974482,-0.3003942456052684,False,0,2,75,4,2,0,7.0,0.9169932056145611,48.94083866008602,44.636415557812505,1.4346210254162344,2.2527857772761535,0.00020639212828834765
IT2,1,4,390,153.84615384615384,4,2,False,,,74.79787473312055,73.0,1533.9599999715574,-1.7978747331205511,False,0,2,76,4,2,0,7.0,0.9169932056145611,48.94083866008602,44.636415557812505,1.921396509151009,3.028644141672784,0.0008621871687596276
IT2,1,2,329,182.370820668693,5,0,False,,,87.06720173383901,80.0,6305.27000001166,-7.067201733839013,False,0,2,77,4,2,0,7.0,0.9169932056145611,48.94083866008602,44.636415557812505,-2.0317790632241497,-3.1058425700758225,9.400332011711514e-05
IT2,1,4,599,100.1669449081803,3,1,False,,,43.84378078116181,35.0,2462.0750000467524,-8.843780781161811,False,0,2,78,4,2,0,7.0,0.9169932056145611,48.94083866008602,44.636415557812505,-8.445007473744958,-12.29052944230289,0.004040209884945472
IT2,1,5,652,92.02453987730061,2,0,False,,,37.727982709047225,43.0,3363.825000007637,5.272017290952775,False,0,2,79,4,2,0,7.0,0.9169932056145611,48.94083866008602,44.636415557812505,5.0147386105465515,8.098488870349836,0.0016531053048774863
IT2,1,6,599,100.1669449081803,3,1,False,,,43.84378078116181,48.0,1941.5850000223145,4.156219218838189,False,0,2,80,4,2,0,7.0,0.9169932056145611,48.94083866008602,44.636415557812505,4.554992526255042,7.329492200686738,0.001266176764441413
IT2,1,3,463,129.58963282937364,4,0,False,,,62.42097125758927,60.0,6818.169999984093,-2.4209712575892723,False,0,2,81,4,2,0,7.0,0.9169932056145611,48.94083866008602,44.636415557812505,-0.02939135379401847,-0.04563064786324807,2.3073094942695393e-05
IT2,1,5,599,100.1669449081803,3,2,False,,,43.84378078116181,61.0,4906.994999968447,17.15621921883819,False,0,2,82,4,2,0,7.0,0.9169932056145611,48.94083866008602,44.636415557812505,17.55499252625504,31.338381394964976,0.01815201139764811
IT2,1,7,843,71.17437722419929,1,2,False,,,19.194949373496982,27.0,1715.3849999886006,7.805050626503018,False,0,2,83,4,2,0,7.0,0.9169932056145611,48.94083866008602,44.636415557812505,5.559702160794799,9.01716440897829,0.003323966596083735
IT2,1,3,329,182.370820668693,5,2,False,,,87.06720173383901,82.0,5829.909999971278,-5.067201733839013,False,0,2,84,4,2,0,7.0,0.9169932056145611,48.94083866008602,44.636415557812505,-0.031779063224149695,-0.049336698556778205,0.0002641843118834786
IT2,1,4,774,77.51937984496124,2,2,False,,,25.354902613380577,25.0,4770.250000001397,-0.3549026133805775,False,0,2,85,4,2,0,7.0,0.9169932056145611,48.94083866008602,44.636415557812505,-1.9394624918479515,-2.9668393897960015,0.0005672678495683662
IT2,1,5,329,182.370820668693,5,2,False,,,87.06720173383901,100.0,3525.5949999555014,12.932798266160987,False,0,2,86,4,2,0,7.0,0.9169932056145611,48.94083866008602,44.636415557812505,17.96822093677585,32.183878533319756,0.06239866844350286
IT2,1,7,504,119.04761904761905,3,0,False,,,56.30039424560527,35.0,8772.919999959413,-21.30039424560527,False,0,2,87,4,2,0,7.0,0.9169932056145611,48.94083866008602,44.636415557812505,-19.565378974583766,-26.201046475660533,0.02125836307718072
IT2,1,5,843,71.17437722419929,1,1,False,,,19.194949373496982,27.0,2146.1550000240095,7.805050626503018,False,0,2,88,4,2,0,7.0,0.9169932056145611,48.94083866008602,44.636415557812505,5.559702160794799,9.01716440897829,0.003323966596083735
IT2,1,3,652,92.02453987730061,2,2,False,,,37.727982709047225,29.0,2757.709999976214,-8.727982709047225,False,0,2,89,4,2,0,7.0,0.9169932056145611,48.94083866008602,44.636415557812505,-8.985261389453449,-13.023286629593773,0.005493542507324797
IT2,1,6,425,141.1764705882353,4,0,False,,,68.5984388693479,76.0,2737.2549999854527,7.401561130652098,False,0,2,90,4,2,0,7.0,0.9169932056145611,48.94083866008602,44.636415557812505,10.455808417938272,17.629010193236017,0.010431336274966363
IT2,2,4,550,109.0909090909091,3,1,True,,,50.0,43.0,2671.1750000249594,-7.0,False,1,0,1,4,2,0,24.0,0.9353814895497372,48.76459200018067,55.57450017310496,-5.76459200018067,-6.93744410445196,0.0015230585082860928
IT2,2,7,918,65.359477124183,1,2,True,,,13.046873249910696,24.0,2740.6999999657273,10.953126750089304,False,1,0,2,4,2,0,24.0,0.9353814895497372,48.76459200018067,55.57450017310496,16.30843897921148,22.556910437490604,0.033326524390527336
IT2,2,5,504,119.04761904761905,3,1,True,,,56.30039424560527,50.0,885.355000034906,-6.300394245605268,False,1,0,3,4,2,0,24.0,0.9353814895497372,48.76459200018067,55.57450017310496,-5.767417222041061,-6.940723318591202,0.0015085091993802635
IT2,2,3,463,129.58963282937364,4,2,True,,,62.42097125758927,72.0,2873.265000001993,9.579028742410728,False,1,0,4,4,2,0,24.0,0.9353814895497372,48.76459200018067,55.57450017310496,9.429622613718799,12.480533883669091,0.005510590735607729
IT2,2,2,599,100.1669449081803,3,1,True,,,43.84378078116181,29.0,4143.784999963827,-14.843780781161811,False,1,0,5,4,2,0,24.0,0.9353814895497372,48.76459200018067,55.57450017310496,-12.922015879320774,-14.885136017724157,0.008386104553247925
IT2,2,3,329,182.370820668693,5,0,True,,,87.06720173383901,100.0,3032.069999957457,12.932798266160987,False,1,0,6,4,2,0,24.0,0.9353814895497372,48.76459200018067,55.57450017310496,10.035583816344271,13.333858491798692,0.017749986834634794
IT2,2,7,550,109.0909090909091,3,1,True,,,50.0,24.0,2155.8899999945424,-26.0,False,1,0,7,4,2,0,24.0,0.9353814895497372,48.76459200018067,55.57450017310496,-24.76459200018067,-26.572657145294308,0.028485971572202277
IT2,2,6,329,182.370820668693,5,0,True,,,87.06720173383901,100.0,2344.570000015665,12.932798266160987,False,1,0,8,4,2,0,24.0,0.9353814895497372,48.76459200018067,55.57450017310496,10.035583816344271,13.333858491798692,0.017749986834634794
IT2,2,5,843,71.17437722419929,1,2,True,,,19.194949373496982,0.0,2087.34500000719,-19.194949373496982,False,1,0,9,4,2,0,24.0,0.9353814895497372,48.76459200018067,55.57450017310496,-14.52508617267869,-16.570033322667953,0.02657373247398757
IT2,2,4,329,182.370820668693,5,2,True,"[74, 74]","[441, 969]",87.06720173383901,100.0,2753.3149999799207,12.932798266160987,True,2,0,10,4,2,0,24.0,0.9353814895497372,48.76459200018067,55.57450017310496,10.035583816344271,13.333858491798692,0.017749986834634794
IT2,2,6,843,71.17437722419929,1,1,True,,,19.194949373496982,0.0,2058.08500002604,-19.194949373496982,False,1,0,11,4,2,0,24.0,0.9353814895497372,48.76459200018067,55.57450017310496,-14.52508617267869,-16.570033322667953,0.02657373247398757
IT2,2,2,774,77.51937984496124,2,1,True,,,25.354902613380577,0.0,2111.3900000345893,-25.354902613380577,False,1,0,12,4,2,0,24.0,0.9353814895497372,48.76459200018067,55.57450017310496,-21.37181262060328,-23.398820630776974,0.04292158884113953
IT2,2,6,390,153.84615384615384,4,0,True,,,74.79787473312055,79.0,3007.5749999959953,4.202125266879449,False,1,0,13,4,2,0,24.0,0.9353814895497372,48.76459200018067,55.57450017310496,2.6728181268504585,3.389833215040878,0.001047777193990235
IT2,2,7,358,167.5977653631285,5,2,True,,,80.97360155738828,67.0,2635.915000049863,-13.973601557388278,False,1,0,14,4,2,0,24.0,0.9353814895497372,48.76459200018067,55.57450017310496,-16.191440502435853,-18.286099657808787,0.026172571809062427
IT2,2,4,425,141.1764705882353,4,1,True,,,68.5984388693479,50.0,1028.5600000061095,-18.598438869347902,False,1,0,15,4,2,0,24.0,0.9353814895497372,48.76459200018067,55.57450017310496,-19.436570883461798,-21.52739565555806,0.024832437375787664
IT2,2,6,550,109.0909090909091,3,0,True,,,50.0,62.0,4666.885000013281,12.0,False,1,0,16,4,2,0,24.0,0.9353814895497372,48.76459200018067,55.57450017310496,13.23540799981933,17.948423204544362,0.008231045949751613
IT2,2,5,425,141.1764705882353,4,1,True,,,68.5984388693479,81.0,2624.980000022333,12.401561130652098,False,1,0,17,4,2,0,24.0,0.9353814895497372,48.76459200018067,55.57450017310496,11.563429116538202,15.514244860539245,0.010324692284113389
IT2,2,7,774,77.51937984496124,2,2,True,,,25.354902613380577,14.0,1855.7850000215694,-11.354902613380577,False,1,0,18,4,2,0,24.0,0.9353814895497372,48.76459200018067,55.57450017310496,-7.371812620603279,-8.784392360969056,0.005708951983632664
IT2,2,2,329,182.370820668693,5,2,True,,,87.06720173383901,100.0,3072.8899999521673,12.932798266160987,False,1,0,19,4,2,0,24.0,0.9353814895497372,48.76459200018067,55.57450017310496,10.035583816344271,13.333858491798692,0.017749986834634794
IT2,2,7,425,141.1764705882353,4,0,True,,,68.5984388693479,59.0,3219.249999965541,-9.598438869347902,False,1,0,20,4,2,0,24.0,0.9353814895497372,48.76459200018067,55.57450017310496,-10.436570883461798,-12.205299526124666,0.0067787815330369915
IT2,2,6,652,92.02453987730061,2,0,True,,,37.727982709047225,21.0,2019.7749999933876,-16.727982709047225,False,1,0,21,4,2,0,24.0,0.9353814895497372,48.76459200018067,55.57450017310496,-14.124367458972628,-16.15201306611474,0.011847908838110181
IT2,2,3,550,109.0909090909091,3,0,True,,,50.0,50.0,784.0399999986403,0.0,False,1,0,22,4,2,0,24.0,0.9353814895497372,48.76459200018067,55.57450017310496,1.23540799981933,1.5527820928072213,7.703221601152773e-05
IT2,2,5,358,167.5977653631285,5,2,True,,,80.97360155738828,88.0,2224.6049999957904,7.026398442611722,False,1,0,23,4,2,0,24.0,0.9353814895497372,48.76459200018067,55.57450017310496,4.808559497564147,6.1809213992821475,0.0037332153783804826
IT2,2,3,652,92.02453987730061,2,1,True,,,37.727982709047225,15.0,1579.4549999991432,-22.727982709047225,False,1,0,24,4,2,0,24.0,0.9353814895497372,48.76459200018067,55.57450017310496,-20.12436745897263,-22.197691475769783,0.023748471684685715
IT2,2,4,918,65.359477124183,1,0,True,,,13.046873249910696,0.0,2003.9949999772944,-13.046873249910696,False,1,0,25,4,2,0,24.0,0.9353814895497372,48.76459200018067,55.57450017310496,-7.691561020788519,-9.147438422549435,0.01082934370975398
IT2,2,5,652,92.02453987730061,2,1,True,,,37.727982709047225,21.0,2556.5000000060536,-16.727982709047225,False,1,0,26,4,2,0,24.0,0.9353814895497372,48.76459200018067,55.57450017310496,-14.124367458972628,-16.15201306611474,0.011847908838110181
IT2,2,3,1000,60.0,1,2,True,,,6.875176187496734,0.0,3870.890000020154,-6.875176187496734,False,1,0,27,4,2,0,24.0,0.9353814895497372,48.76459200018067,55.57450017310496,-0.8317814315189977,-1.0320679984198715,0.000741491530288799
IT2,2,2,463,129.58963282937364,4,1,True,,,62.42097125758927,74.0,5073.4100000117905,11.579028742410728,False,1,0,28,4,2,0,24.0,0.9353814895497372,48.76459200018067,55.57450017310496,11.429622613718799,15.321625332179169,0.007978380895596996
IT2,2,4,774,77.51937984496124,2,0,True,,,25.354902613380577,0.0,12793.769999989308,-25.354902613380577,False,1,0,29,4,2,0,24.0,0.9353814895497372,48.76459200018067,55.57450017310496,-21.37181262060328,-23.398820630776974,0.04292158884113953
IT2,2,2,843,71.17437722419929,1,2,True,,,19.194949373496982,20.0,3605.2500000223517,0.805050626503018,False,1,0,30,4,2,0,24.0,0.9353814895497372,48.76459200018067,55.57450017310496,5.474913827321309,7.067072084304071,0.0024128214502272725
IT2,2,6,918,65.359477124183,1,0,True,"[74, 74, 74, 74, 74, 74]","[348, 940, 1550, 2194, 2781, 3402]",13.046873249910696,14.0,2340.1450000237674,0.9531267500893037,True,2,1,31,4,2,0,24.0,0.9353814895497372,48.76459200018067,55.57450017310496,6.308438979211481,8.185953246292517,0.003985482140587023
IT2,2,4,599,100.1669449081803,3,0,True,"[74, 74, 74, 74]","[395, 952, 1498, 2038]",43.84378078116181,32.0,3683.2500000018626,-11.843780781161811,True,2,1,32,4,2,0,24.0,0.9353814895497372,48.76459200018067,55.57450017310496,-9.922015879320774,-11.640044618316367,0.004973787605049507
IT2,2,3,918,65.359477124183,1,1,True,"[74, 74, 74, 74, 74]","[279, 859, 1428, 1991, 3587]",13.046873249910696,0.0,3346.1349999997765,-13.046873249910696,True,2,1,33,4,2,0,24.0,0.9353814895497372,48.76459200018067,55.57450017310496,-7.691561020788519,-9.147438422549435,0.01082934370975398
IT2,2,7,329,182.370820668693,5,0,True,"[74, 74, 74]","[261, 766, 1289]",87.06720173383901,86.0,3261.6300000227056,-1.0672017338390134,True,2,1,34,4,2,0,24.0,0.9353814895497372,48.76459200018067,55.57450017310496,-3.964416183655729,-4.824322858299804,0.0011487514188751585
IT2,2,2,390,153.84615384615384,4,2,True,"[74, 74, 74]","[290, 801, 1347]",74.79787473312055,78.0,2860.355000011623,3.202125266879449,True,2,1,35,4,2,0,24.0,0.9353814895497372,48.76459200018067,55.57450017310496,1.6728181268504585,2.1083226264999753,0.0005274013876949705
IT2,2,7,710,84.50704225352112,2,1,True,"[74, 74, 74, 74, 74]","[360, 958, 1562, 2154, 2815]",31.580629700998873,34.0,2633.434999966994,2.4193702990011268,True,2,1,36,4,2,0,24.0,0.9353814895497372,48.76459200018067,55.57450017310496,5.708353957225778,7.379258303664984,0.0019047404399862421
IT2,2,4,358,167.5977653631285,5,0,True,"[74, 74, 74]","[319, 842, 1382]",80.97360155738828,86.0,2773.8249999820255,5.026398442611722,True,2,1,37,4,2,0,24.0,0.9353814895497372,48.76459200018067,55.57450017310496,2.808559497564147,3.5650225432482254,0.0015898905013152862
IT2,2,5,390,153.84615384615384,4,2,True,"[74, 74, 74]","[325, 853, 1422]",74.79787473312055,96.0,2032.370000029914,21.20212526687945,True,2,1,38,4,2,0,24.0,0.9353814895497372,48.76459200018067,55.57450017310496,19.67281812685046,27.8090517045278,0.036956294012309765
IT2,2,7,599,100.1669449081803,3,0,True,"[74, 74, 74, 74]","[511, 1074, 1596, 2154]",43.84378078116181,50.0,1205.3500000038184,6.156219218838189,True,2,1,39,4,2,0,24.0,0.9353814895497372,48.76459200018067,55.57450017310496,8.077984120679226,10.600211770166416,0.003111237195174746
IT2,2,5,774,77.51937984496124,2,0,True,"[74, 74, 74, 74, 74, 74]","[302, 900, 1492, 2003, 2525, 3065]",25.354902613380577,16.0,2730.7850000215694,-9.354902613380577,True,2,1,40,4,2,0,24.0,0.9353814895497372,48.76459200018067,55.57450017310496,-5.371812620603279,-6.48042140807579,0.0032211396775140197
IT2,2,3,425,141.1764705882353,4,1,True,"[74, 74, 74]","[337, 865, 1422]",68.5984388693479,79.0,2450.124999973923,10.401561130652098,True,2,1,41,4,2,0,24.0,0.9353814895497372,48.76459200018067,55.57450017310496,9.563429116538202,12.66840799074966,0.007206027701006721
IT2,2,2,918,65.359477124183,1,1,True,"[74, 74, 74, 74, 74, 74]","[418, 1010, 1654, 2223, 2839, 3471]",13.046873249910696,16.0,2357.2949999943376,2.9531267500893037,True,2,1,42,4,2,0,24.0,0.9353814895497372,48.76459200018067,55.57450017310496,8.30843897921148,10.9185699578636,0.0075717229372854
IT2,2,3,774,77.51937984496124,2,0,True,"[74, 74, 74, 74, 74]","[528, 1051, 1643, 2223, 2879]",25.354902613380577,28.0,5563.900000008289,2.6450973866194225,True,2,1,43,4,2,0,24.0,0.9353814895497372,48.76459200018067,55.57450017310496,6.628187379396721,8.618263393221099,0.003142728876809409
IT2,2,2,550,109.0909090909091,3,2,True,"[74, 74, 74, 74, 89]","[279, 853, 1451, 2055, 2241]",50.0,50.0,807.4199999682605,0.0,True,2,1,44,4,2,0,24.0,0.9353814895497372,48.76459200018067,55.57450017310496,1.23540799981933,1.5527820928072213,7.703221601152773e-05
IT2,2,3,358,167.5977653631285,5,1,True,"[74, 74, 74]","[174, 685, 1236]",80.97360155738828,82.0,2282.0799999753945,1.0263984426117219,True,2,1,45,4,2,0,24.0,0.9353814895497372,48.76459200018067,55.57450017310496,-1.191440502435853,-1.4750251236449998,6.65534206408288e-06
IT2,2,2,710,84.50704225352112,2,0,True,"[74, 74, 74, 74, 74]","[302, 871, 1416, 1927, 2479]",31.580629700998873,24.0,2722.509999992326,-7.580629700998873,True,2,1,46,4,2,0,24.0,0.9353814895497372,48.76459200018067,55.57450017310496,-4.291646042774222,-5.211975587561732,0.0015922946529115297
IT2,2,3,504,119.04761904761905,3,2,True,"[74, 74, 74, 74]","[99, 615, 1091, 1602]",56.30039424560527,61.0,4671.574999985751,4.699605754394732,True,2,1,47,4,2,0,24.0,0.9353814895497372,48.76459200018067,55.57450017310496,5.232582777958939,6.743955883463093,0.0014707784816218679
IT2,2,6,358,167.5977653631285,5,2,True,"[74, 74, 74]","[180, 726, 1242]",80.97360155738828,84.0,2327.6549999718554,3.026398442611722,True,2,1,48,4,2,0,24.0,0.9353814895497372,48.76459200018067,55.57450017310496,0.808559497564147,1.0135696040025677,0.0003477038225431533
IT2,2,4,710,84.50704225352112,2,2,True,"[74, 74, 74, 74, 74]","[313, 848, 1387, 1927, 2450]",31.580629700998873,29.0,3182.3200000217184,-2.5806297009988732,True,2,1,49,4,2,0,24.0,0.9353814895497372,48.76459200018067,55.57450017310496,0.7083539572257784,0.8874013813286347,3.4964609694786576e-06
IT2,2,6,599,100.1669449081803,3,2,True,"[74, 74, 74, 74]","[325, 871, 1416, 1968]",43.84378078116181,36.0,2590.4350000200793,-7.843780781161811,True,2,1,50,4,2,0,24.0,0.9353814895497372,48.76459200018067,55.57450017310496,-5.9220158793207744,-7.119988789556939,0.0018026502874009314
IT2,2,7,463,129.58963282937364,4,2,True,"[74, 74, 74, 74]","[75, 650, 1149, 1608]",62.42097125758927,80.0,2494.795000005979,17.579028742410728,True,2,1,51,4,2,0,24.0,0.9353814895497372,48.76459200018067,55.57450017310496,17.4296226137188,24.28276637878389,0.018113679875276158
IT2,2,6,710,84.50704225352112,2,1,True,"[74, 74, 74, 74, 74, 74]","[215, 708, 1225, 1736, 2241, 2711]",31.580629700998873,31.0,4404.52500001993,-0.5806297009988732,True,2,1,52,4,2,0,24.0,0.9353814895497372,48.76459200018067,55.57450017310496,2.7083539572257784,3.4356674984092703,0.0003451889920611263
IT2,2,2,358,167.5977653631285,5,1,True,"[74, 74, 74]","[197, 714, 1219]",80.97360155738828,73.0,1951.4450000133365,-7.973601557388278,True,2,1,53,4,2,0,24.0,0.9353814895497372,48.76459200018067,55.57450017310496,-10.191440502435853,-11.936468490841088,0.009623522383784913
IT2,2,5,550,109.0909090909091,3,2,True,"[74, 74, 74, 74]","[337, 900, 1434, 2142]",50.0,50.0,1563.4900000295602,0.0,True,2,1,54,4,2,0,24.0,0.9353814895497372,48.76459200018067,55.57450017310496,1.23540799981933,1.5527820928072213,7.703221601152773e-05
IT2,2,6,425,141.1764705882353,4,1,True,"[74, 74, 74]","[383, 964, 1562]",68.5984388693479,75.0,2624.9749999842606,6.401561130652098,True,2,1,55,4,2,0,24.0,0.9353814895497372,48.76459200018067,55.57450017310496,5.563429116538202,7.185339162282807,0.002646483970962312
IT2,2,5,1000,60.0,1,1,True,"[74, 74, 74, 74, 74, 74, 74]","[313, 894, 1445, 1980, 2543, 3053, 3599]",6.875176187496734,8.0,2246.0899999714456,1.1248238125032657,True,2,1,56,4,2,0,24.0,0.9353814895497372,48.76459200018067,55.57450017310496,7.168218568481002,9.352329218714484,0.0063873617775807474
IT2,2,4,463,129.58963282937364,4,0,True,"[74, 74, 74]","[348, 894, 1445]",62.42097125758927,50.0,851.555000001099,-12.420971257589272,True,2,1,57,4,2,0,24.0,0.9353814895497372,48.76459200018067,55.57450017310496,-12.570377386281201,-14.511021620055004,0.008416112472550877
IT2,2,7,1000,60.0,1,1,True,"[74, 74, 74, 74, 74, 74, 74]","[325, 882, 1451, 1991, 2589, 3187, 3733]",6.875176187496734,6.0,3118.5000000405125,-0.8751761874967343,True,2,1,58,4,2,0,24.0,0.9353814895497372,48.76459200018067,55.57450017310496,5.168218568481002,6.658298792738033,0.0028231309418859634
IT2,2,5,302,198.67549668874173,5,1,True,,,93.24415345434716,87.0,4359.140000015032,-6.244153454347156,False,1,1,59,4,2,0,24.0,0.9353814895497372,48.76459200018067,55.57450017310496,-9.83003627286854,-11.53861937294839,0.013031572167970011
IT2,2,4,843,71.17437722419929,1,1,True,"[74, 74, 74, 74, 74, 74]","[319, 842, 1376, 1933, 2479, 3077]",19.194949373496982,11.0,2072.020000021439,-8.194949373496982,True,2,1,60,4,2,0,24.0,0.9353814895497372,48.76459200018067,55.57450017310496,-3.525086172678691,-4.301376499490021,0.0021474205174819784
IT2,2,4,302,198.67549668874173,5,1,True,"[74, 74]","[308, 842]",93.24415345434716,100.0,2788.6450000223704,6.755846545652844,True,2,2,61,4,2,0,24.0,0.9353814895497372,48.76459200018067,55.57450017310496,3.16996372713146,4.0329035395842,0.0035891264815409068
IT2,2,7,843,71.17437722419929,1,0,True,"[74, 74, 74, 74]","[296, 836, 1405, 1997]",19.194949373496982,26.0,2344.9149999651127,6.805050626503018,True,2,2,62,4,2,0,24.0,0.9353814895497372,48.76459200018067,55.57450017310496,11.47491382732131,15.386787763222127,0.012715038035788464
IT2,2,3,302,198.67549668874173,5,2,True,"[74, 74]","[406, 969]",93.24415345434716,73.0,2262.230000051204,-20.244153454347156,True,2,2,63,4,2,0,24.0,0.9353814895497372,48.76459200018067,55.57450017310496,-23.83003627286854,-25.71176950903354,0.09096905975530625
IT2,2,2,652,92.02453987730061,2,2,True,"[74, 74, 74, 74, 74]","[348, 882, 1440, 1997, 2554]",37.727982709047225,50.0,1098.1299999984913,12.272017290952775,True,2,2,64,4,2,0,24.0,0.9353814895497372,48.76459200018067,55.57450017310496,14.875632541027372,20.386207135473295,0.012077015746622335
IT2,2,6,504,119.04761904761905,3,1,True,"[74, 74, 74, 74]","[331, 935, 1480, 2026]",56.30039424560527,50.0,848.6350000021048,-6.300394245605268,True,2,2,65,4,2,0,24.0,0.9353814895497372,48.76459200018067,55.57450017310496,-5.767417222041061,-6.940723318591202,0.0015085091993802635
IT2,2,3,710,84.50704225352112,2,2,True,"[74, 74, 74, 74, 74]","[232, 789, 1329, 1933, 2444]",31.580629700998873,31.0,2102.3200000054203,-0.5806297009988732,True,2,2,66,4,2,0,24.0,0.9353814895497372,48.76459200018067,55.57450017310496,2.7083539572257784,3.4356674984092703,0.0003451889920611263
IT2,2,7,302,198.67549668874173,5,1,True,"[74, 74]","[261, 824]",93.24415345434716,91.0,2684.3099999823608,-2.244153454347156,True,2,2,67,4,2,0,24.0,0.9353814895497372,48.76459200018067,55.57450017310496,-5.83003627286854,-7.013375133109209,0.0036720423668316522
IT2,2,2,1000,60.0,1,0,True,"[74, 74, 74, 74, 74, 74, 74]","[401, 998, 1585, 2136, 2682, 3262, 3907]",6.875176187496734,16.0,2662.705000024289,9.124823812503266,True,2,2,68,4,2,0,24.0,0.9353814895497372,48.76459200018067,55.57450017310496,15.168218568481002,20.826328930134633,0.034996040279505175
IT2,2,7,390,153.84615384615384,4,1,True,"[74, 74, 74]","[447, 1039, 1567]",74.79787473312055,86.0,2924.3350000469945,11.202125266879449,True,2,2,69,4,2,0,24.0,0.9353814895497372,48.76459200018067,55.57450017310496,9.672818126850458,12.8222312621978,0.009642954159079314
IT2,2,5,329,182.370820668693,5,0,True,"[74, 74]","[389, 964]",87.06720173383901,77.0,2421.0750000202097,-10.067201733839013,True,2,2,70,4,2,0,24.0,0.9353814895497372,48.76459200018067,55.57450017310496,-12.964416183655729,-14.930135700190602,0.019973888410063274
IT2,2,6,774,77.51937984496124,2,2,True,"[74, 74, 74, 74, 74]","[447, 1010, 1573, 2194, 2757]",25.354902613380577,23.0,2270.3350000083447,-2.3549026133805775,True,2,2,71,4,2,0,24.0,0.9353814895497372,48.76459200018067,55.57450017310496,1.6281873793967208,2.0514996043770664,8.197024460148386e-05
IT2,2,5,599,100.1669449081803,3,0,True,"[74, 74, 74, 74]","[447, 1022, 1579, 2130]",43.84378078116181,54.0,1918.9450000412762,10.156219218838189,True,2,2,72,4,2,0,24.0,0.9353814895497372,48.76459200018067,55.57450017310496,12.077984120679226,16.257968496211557,0.007030138460122644
IT2,2,4,390,153.84615384615384,4,2,True,"[74, 74, 74]","[383, 911, 1486]",74.79787473312055,80.0,3079.9450000049546,5.202125266879449,True,2,2,73,4,2,0,24.0,0.9353814895497372,48.76459200018067,55.57450017310496,3.6728181268504585,4.687427403295283,0.0017450296546077226
IT2,2,3,843,71.17437722419929,1,0,True,"[74, 74, 74, 74, 74, 74]","[430, 981, 1527, 2032, 2635, 3164]",19.194949373496982,20.0,2201.130000001285,0.805050626503018,True,2,2,74,4,2,0,24.0,0.9353814895497372,48.76459200018067,55.57450017310496,5.474913827321309,7.067072084304071,0.0024128214502272725
IT2,2,4,652,92.02453987730061,2,1,True,"[74, 74, 74, 74, 74]","[406, 998, 1509, 2026, 2566]",37.727982709047225,22.0,2007.1849999949336,-15.727982709047225,True,2,2,75,4,2,0,24.0,0.9353814895497372,48.76459200018067,55.57450017310496,-13.124367458972628,-15.099678835959375,0.010262747172878355
IT2,2,3,599,100.1669449081803,3,1,True,"[74, 74, 74, 74, 74]","[17, 575, 1097, 1672, 2188]",43.84378078116181,50.0,1013.5000000009313,6.156219218838189,True,2,2,76,4,2,0,24.0,0.9353814895497372,48.76459200018067,55.57450017310496,8.077984120679226,10.600211770166416,0.003111237195174746
IT2,2,4,1000,60.0,1,2,True,"[74, 74, 74, 74, 74, 74, 74]","[395, 981, 1550, 2084, 2635, 3193, 3767]",6.875176187496734,20.0,2568.2149999774992,13.124823812503266,True,2,2,77,4,2,0,24.0,0.9353814895497372,48.76459200018067,55.57450017310496,19.168218568481002,27.00720294697992,0.05791143262595456
IT2,2,2,425,141.1764705882353,4,0,True,"[74, 74, 74]","[389, 952, 1440]",68.5984388693479,77.0,3313.0050000036135,8.401561130652098,True,2,2,78,4,2,0,24.0,0.9353814895497372,48.76459200018067,55.57450017310496,7.563429116538202,9.892681846258327,0.004646624929956363
IT2,2,6,1000,60.0,1,2,True,"[74, 74, 74, 74, 74, 74, 74, 74]","[255, 784, 1312, 1834, 2357, 2862, 3419, 3947]",6.875176187496734,15.0,1914.0999999945052,8.124823812503266,True,2,2,79,4,2,0,24.0,0.9353814895497372,48.76459200018067,55.57450017310496,14.168218568481002,19.32869405556782,0.030164176890339418
IT2,2,4,504,119.04761904761905,3,2,True,"[74, 74, 74, 74]","[99, 627, 1120, 1614]",56.30039424560527,50.0,859.1299999970943,-6.300394245605268,True,2,2,80,4,2,0,24.0,0.9353814895497372,48.76459200018067,55.57450017310496,-5.767417222041061,-6.940723318591202,0.0015085091993802635
IT2,2,3,390,153.84615384615384,4,0,True,"[74, 74, 74]","[337, 842, 1364]",74.79787473312055,84.0,2770.58999997098,9.202125266879449,True,2,2,81,4,2,0,24.0,0.9353814895497372,48.76459200018067,55.57450017310496,7.6728181268504585,10.042715490393869,0.006302806040299895
IT2,2,7,504,119.04761904761905,3,2,True,"[74, 74, 74, 74]","[255, 789, 1277, 1829]",56.30039424560527,69.0,2953.6100000259466,12.699605754394732,True,2,2,82,4,2,0,24.0,0.9353814895497372,48.76459200018067,55.57450017310496,13.232582777958939,17.944267095426678,0.0089281903408597
IT2,2,5,918,65.359477124183,1,0,True,"[74, 74, 74, 74, 74, 74]","[302, 842, 1387, 1910, 2415, 3419]",13.046873249910696,15.0,2089.0200000139885,1.9531267500893037,True,2,2,83,4,2,0,24.0,0.9353814895497372,48.76459200018067,55.57450017310496,7.308438979211481,9.543741143011266,0.005635979560605607
IT2,2,6,302,198.67549668874173,5,1,True,"[74, 74]","[244, 784]",93.24415345434716,88.0,2715.864999976475,-5.244153454347156,True,2,2,84,4,2,0,24.0,0.9353814895497372,48.76459200018067,55.57450017310496,-8.83003627286854,-10.428384741387685,0.010153842892883612
IT2,2,5,710,84.50704225352112,2,2,True,"[74, 74, 74, 74, 74]","[273, 830, 1353, 1881, 2403]",31.580629700998873,24.0,2253.480000013951,-7.580629700998873,True,2,2,85,4,2,0,24.0,0.9353814895497372,48.76459200018067,55.57450017310496,-4.291646042774222,-5.211975587561732,0.0015922946529115297
IT2,2,2,504,119.04761904761905,3,0,True,"[74, 74, 74, 74]","[163, 708, 1248, 1811]",56.30039424560527,50.0,1053.7550000008196,-6.300394245605268,True,2,2,86,4,2,0,24.0,0.9353814895497372,48.76459200018067,55.57450017310496,-5.767417222041061,-6.940723318591202,0.0015085091993802635
IT2,2,5,463,129.58963282937364,4,0,True,"[74, 74, 74]","[244, 795, 1329]",62.42097125758927,76.0,2443.615000054706,13.579028742410728,True,2,2,87,4,2,0,24.0,0.9353814895497372,48.76459200018067,55.57450017310496,13.429622613718799,18.234478536613544,0.010901492472204823
IT2,2,2,302,198.67549668874173,5,0,True,"[74, 74]","[435, 975]",93.24415345434716,80.0,2612.444999977015,-13.244153454347156,True,2,2,88,4,2,0,24.0,0.9353814895497372,48.76459200018067,55.57450017310496,-16.83003627286854,-18.934351087704687,0.04321548448987525
IT2,2,6,463,129.58963282937364,4,2,True,"[74, 74, 74, 74]","[174, 755, 1283, 1811]",62.42097125758927,77.0,3581.594999996014,14.579028742410728,True,2,2,89,4,2,0,24.0,0.9353814895497372,48.76459200018067,55.57450017310496,14.429622613718799,19.718380458394382,0.01253379379174069
IT2,2,7,652,92.02453987730061,2,0,True,"[74, 74, 74, 74, 74]","[296, 853, 1393, 1933, 2490]",37.727982709047225,22.0,2292.53500001505,-15.727982709047225,True,2,2,90,4,2,0,24.0,0.9353814895497372,48.76459200018067,55.57450017310496,-13.124367458972628,-15.099678835959375,0.010262747172878355
IT2,4,2,774,77.51937984496124,2,0,True,"[74, 74, 74, 74]","[459, 911, 1707, 2403]",25.354902613380577,24.0,16617.579999998212,-1.3549026133805775,True,2,0,1,0,2,4,12.0,0.9338137965259741,51.68528360745418,55.401870530456335,-0.37759371497464045,-0.4713031610670521,0.00017661884369478433
IT2,4,6,358,167.5977653631285,5,0,True,"[74, 74, 74]","[464, 848, 1225]",80.97360155738828,76.0,2349.3999999992084,-4.973601557388278,True,2,0,2,0,2,4,12.0,0.9338137965259741,51.68528360745418,55.401870530456335,-10.005192874341503,-11.765978378553767,0.009059047642428465
IT2,4,4,843,71.17437722419929,1,1,True,"[74, 74, 74, 74]","[424, 749, 1858, 2630]",19.194949373496982,6.0,3091.1699999996927,-13.194949373496982,True,2,0,3,0,2,4,12.0,0.9338137965259741,51.68528360745418,55.401870530456335,-11.552135077580722,-13.457257406175021,0.018388107820930352
IT2,4,3,504,119.04761904761905,3,0,True,"[74, 74, 74, 74]","[354, 807, 1289, 1718]",56.30039424560527,50.0,1733.6149999974295,-6.300394245605268,True,2,0,4,0,2,4,12.0,0.9338137965259741,51.68528360745418,55.401870530456335,-8.666356133171284,-10.275563632051025,0.0035920513446172845
IT2,4,6,843,71.17437722419929,1,1,True,"[74, 74, 74, 74]","[418, 906, 1916, 2769]",19.194949373496982,29.0,4340.839999997173,9.805050626503018,True,2,0,5,0,2,4,12.0,0.9338137965259741,51.68528360745418,55.401870530456335,11.447864922419278,15.399196934589929,0.0115972465622136
IT2,4,2,425,141.1764705882353,4,0,True,"[74, 74, 74, 74]","[441, 848, 1144, 1503]",68.5984388693479,61.0,4026.9200000038836,-7.598438869347902,True,2,0,6,0,2,4,12.0,0.9338137965259741,51.68528360745418,55.401870530456335,-11.293049653618567,-13.176275252312077,0.008015348653338425
IT2,4,7,710,84.50704225352112,2,2,True,"[74, 74, 74, 74]","[389, 819, 1567, 2229]",31.580629700998873,34.0,3469.909999999916,2.4193702990011268,True,2,0,7,0,2,4,12.0,0.9338137965259741,51.68528360745418,55.401870530456335,2.724067763701683,3.466894822453853,0.0002543154814495072
IT2,4,3,463,129.58963282937364,4,2,True,"[74, 74, 74, 74]","[377, 813, 1178, 1625]",62.42097125758927,44.0,7870.610000005341,-18.420971257589272,True,2,0,8,0,2,4,12.0,0.9338137965259741,51.68528360745418,55.401870530456335,-21.448184436963786,-23.535515044616897,0.02524973818651525
IT2,4,7,329,182.370820668693,5,0,True,"[74, 74, 74, 74]","[389, 789, 1033, 1335]",87.06720173383901,81.0,3507.4900000035996,-6.067201733839013,True,2,0,9,0,2,4,12.0,0.9338137965259741,51.68528360745418,55.401870530456335,-11.757129835143303,-13.678932874248094,0.015682994342782856
IT2,4,6,463,129.58963282937364,4,1,True,"[74, 74, 74]","[621, 1138, 1521]",62.42097125758927,70.0,2868.2650000046706,7.579028742410728,True,2,0,10,0,2,4,12.0,0.9338137965259741,51.68528360745418,55.401870530456335,4.5518155630362145,5.8601762985822115,0.0013480404182420833
IT2,4,2,843,71.17437722419929,1,1,True,"[74, 74, 74, 74]","[290, 691, 1892, 2601]",19.194949373496982,13.0,3038.5099999986123,-6.194949373496982,True,2,0,11,0,2,4,12.0,0.9338137965259741,51.68528360745418,55.401870530456335,-4.552135077580722,-5.536148016787917,0.003789261726180599
IT2,4,3,329,182.370820668693,5,2,True,"[74, 74, 74, 74]","[418, 772, 1022, 1295]",87.06720173383901,84.0,4585.034999996424,-3.0672017338390134,True,2,0,12,0,2,4,12.0,0.9338137965259741,51.68528360745418,55.401870530456335,-8.757129835143303,-10.377405235840788,0.008013295860338195
IT2,4,5,463,129.58963282937364,4,2,True,"[74, 74, 74, 74]","[435, 766, 1115, 1562]",62.42097125758927,55.0,8764.79500000272,-7.420971257589272,True,2,0,13,0,2,4,12.0,0.9338137965259741,51.68528360745418,55.401870530456335,-10.448184436963786,-12.253652381576092,0.005797373167885556
IT2,4,6,504,119.04761904761905,3,1,True,"[74, 74, 74, 74]","[430, 853, 1283, 1788]",56.30039424560527,50.0,3618.255000001169,-6.300394245605268,True,2,0,14,0,2,4,12.0,0.9338137965259741,51.68528360745418,55.401870530456335,-8.666356133171284,-10.275563632051025,0.0035920513446172845
IT2,4,5,329,182.370820668693,5,0,True,"[74, 74, 74]","[441, 819, 1167]",87.06720173383901,84.0,3502.2000000025146,-3.0672017338390134,True,2,0,15,0,2,4,12.0,0.9338137965259741,51.68528360745418,55.401870530456335,-8.757129835143303,-10.377405235840788,0.008013295860338195
IT2,4,4,774,77.51937984496124,2,1,True,"[74, 74, 74, 74, 74]","[435, 801, 1649, 2334, 3065]",25.354902613380577,12.0,3333.5349999980535,-13.354902613380577,True,2,0,16,0,2,4,12.0,0.9338137965259741,51.68528360745418,55.401870530456335,-12.37759371497464,-14.346430554887421,0.01582534054629585
IT2,4,5,550,109.0909090909091,3,1,True,"[74, 74, 74, 74]","[406, 813, 1271, 1759]",50.0,54.0,4094.3850000039674,4.0,True,2,0,17,0,2,4,12.0,0.9338137965259741,51.68528360745418,55.401870530456335,2.3147163925458187,2.9383436351280317,0.00022132922791636287
IT2,4,3,710,84.50704225352112,2,1,True,"[74, 74, 74, 74]","[389, 819, 1538, 2247]",31.580629700998873,7.0,5067.065000002971,-24.580629700998873,True,2,0,18,0,2,4,12.0,0.9338137965259741,51.68528360745418,55.401870530456335,-24.275932236298317,-26.19343402584959,0.04368821162815268
IT2,4,4,463,129.58963282937364,4,1,True,"[74, 74, 74, 74]","[406, 848, 1184, 1556]",62.42097125758927,87.0,2318.619999998249,24.579028742410728,True,2,0,19,0,2,4,12.0,0.9338137965259741,51.68528360745418,55.401870530456335,21.551815563036214,30.949341696312736,0.02709951723628059
IT2,4,5,652,92.02453987730061,2,1,True,"[74, 74, 74, 74]","[453, 824, 1533, 2142]",37.727982709047225,36.0,2878.4250000026077,-1.7279827090472253,True,2,0,20,0,2,4,12.0,0.9338137965259741,51.68528360745418,55.401870530456335,-2.0874293454364334,-2.5778287449004447,0.0004035935448007073
IT2,4,4,504,119.04761904761905,3,0,True,"[74, 74, 74, 74]","[424, 877, 1254, 1707]",56.30039424560527,64.0,2399.7000000016997,7.699605754394732,True,2,0,21,0,2,4,12.0,0.9338137965259741,51.68528360745418,55.401870530456335,5.333643866828716,6.900745160434509,0.0014471820039103096
IT2,4,5,843,71.17437722419929,1,2,True,"[74, 74, 74, 74]","[383, 813, 1776, 2612]",19.194949373496982,6.0,4158.02000000258,-13.194949373496982,True,2,0,22,0,2,4,12.0,0.9338137965259741,51.68528360745418,55.401870530456335,-11.552135077580722,-13.457257406175021,0.018388107820930352
IT2,4,4,302,198.67549668874173,5,2,True,"[74, 74, 74, 74]","[348, 731, 987, 1196]",93.24415345434716,97.0,3246.7000000033295,3.755846545652844,True,2,0,23,0,2,4,12.0,0.9338137965259741,51.68528360745418,55.401870530456335,-2.601423424992717,-3.2023127090212,0.00022996628174751138
IT2,4,7,918,65.359477124183,1,0,True,"[74, 74, 74, 74]","[447, 731, 2049, 2879]",13.046873249910696,9.0,3587.5750000050757,-4.046873249910696,True,2,0,24,0,2,4,12.0,0.9338137965259741,51.68528360745418,55.401870530456335,-1.7398367293743746,-2.153234545813976,0.0014835486160313517
IT2,4,2,302,198.67549668874173,5,1,True,"[74, 74, 74, 74]","[424, 720, 969, 1167]",93.24415345434716,93.0,2909.074999995879,-0.24415345434715618,True,2,0,25,0,2,4,12.0,0.9338137965259741,51.68528360745418,55.401870530456335,-6.601423424992717,-7.927338497537359,0.00470292017231281
IT2,4,7,463,129.58963282937364,4,2,True,"[74, 74, 74, 74]","[459, 772, 1109, 1602]",62.42097125758927,58.0,3503.5550000029616,-4.420971257589272,True,2,0,26,0,2,4,12.0,0.9338137965259741,51.68528360745418,55.401870530456335,-7.4481844369637855,-8.897611944662897,0.002869664813481053
IT2,4,3,918,65.359477124183,1,2,True,"[74, 74, 74, 74, 74]","[464, 1068, 1974, 2856, 3680]",13.046873249910696,2.0,3462.4599999950733,-11.046873249910696,True,2,0,27,0,2,4,12.0,0.9338137965259741,51.68528360745418,55.401870530456335,-8.739836729374375,-10.358012524781548,0.014856543954465465
IT2,4,7,504,119.04761904761905,3,2,True,"[74, 74, 74, 74]","[412, 842, 1265, 1759]",56.30039424560527,62.0,6400.574999999604,5.699605754394732,True,2,0,28,0,2,4,12.0,0.9338137965259741,51.68528360745418,55.401870530456335,3.333643866828716,4.259008517236767,0.0005781781558273981
IT2,4,6,652,92.02453987730061,2,1,True,"[74, 74, 74, 74, 74]","[418, 824, 1434, 2032, 2653]",37.727982709047225,38.0,3618.494999995106,0.2720172909527747,True,2,0,29,0,2,4,12.0,0.9338137965259741,51.68528360745418,55.401870530456335,-0.08742934543643344,-0.10932531939612555,2.5450099626619866e-05
IT2,4,2,599,100.1669449081803,3,0,True,"[74, 74, 74, 74]","[424, 795, 1393, 1939]",43.84378078116181,50.0,5110.849999997299,6.156219218838189,True,2,0,30,0,2,4,12.0,0.9338137965259741,51.68528360745418,55.401870530456335,5.1360375949294195,6.636780524606028,0.0011181973107398369
IT2,4,3,1000,60.0,1,0,True,"[74, 74, 74, 74]","[499, 906, 1950, 3175]",6.875176187496734,14.0,2805.5400000012014,7.124823812503266,True,2,1,31,0,2,4,12.0,0.9338137965259741,51.68528360745418,55.401870530456335,10.098634502726746,13.467542076957882,0.012519945165531505
IT2,4,5,358,167.5977653631285,5,2,True,"[74, 74, 74, 74]","[447, 801, 1051, 1283]",80.97360155738828,94.0,2057.099999998114,13.026398442611722,True,2,1,32,0,2,4,12.0,0.9338137965259741,51.68528360745418,55.401870530456335,7.994807125658497,10.519866575994214,0.009090116150007804
IT2,4,4,1000,60.0,1,2,True,"[74, 74, 74, 74]","[412, 766, 2090, 3007]",6.875176187496734,5.0,2305.8099999979604,-1.8751761874967343,True,2,1,33,0,2,4,12.0,0.9338137965259741,51.68528360745418,55.401870530456335,1.0986345027267461,1.3840202361155935,6.93150727002333e-05
IT2,4,3,774,77.51937984496124,2,0,True,"[74, 74, 74]","[743, 1637, 2485]",25.354902613380577,36.0,4361.74000000034,10.645097386619423,True,2,1,34,0,2,4,12.0,0.9338137965259741,51.68528360745418,55.401870530456335,11.62240628502536,15.651473238415733,0.009844450701961605
IT2,4,4,329,182.370820668693,5,1,True,"[74, 74, 74, 74]","[441, 807, 1010, 1225]",87.06720173383901,96.0,4952.5099999955855,8.932798266160987,True,2,1,35,0,2,4,12.0,0.9338137965259741,51.68528360745418,55.401870530456335,3.242870164856697,4.14066946639689,0.00284536664375827
IT2,4,5,1000,60.0,1,0,True,"[74, 74, 74, 74]","[493, 975, 2409, 3181]",6.875176187496734,14.0,4168.050000000163,7.124823812503266,True,2,1,36,0,2,4,12.0,0.9338137965259741,51.68528360745418,55.401870530456335,10.098634502726746,13.467542076957882,0.012519945165531505
IT2,4,2,358,167.5977653631285,5,2,True,"[74, 74, 74, 74]","[453, 842, 1062, 1283]",80.97360155738828,93.0,2071.9850000024308,12.026398442611722,True,2,1,37,0,2,4,12.0,0.9338137965259741,51.68528360745418,55.401870530456335,6.994807125658497,9.145737807555049,0.007183849637626215
IT2,4,7,550,109.0909090909091,3,1,True,"[74, 74, 74, 74]","[441, 923, 1405, 1921]",50.0,50.0,1092.250000001397,0.0,True,2,1,38,0,2,4,12.0,0.9338137965259741,51.68528360745418,55.401870530456335,-1.6852836074541813,-2.086428566722349,0.00015288936398786515
IT2,4,2,1000,60.0,1,2,True,"[74, 74, 74, 74, 74]","[453, 795, 2142, 3117, 4040]",6.875176187496734,10.0,4130.620000003604,3.1248238125032657,True,2,1,39,0,2,4,12.0,0.9338137965259741,51.68528360745418,55.401870530456335,6.098634502726746,7.928803730229508,0.0034178383702667754
IT2,4,7,652,92.02453987730061,2,1,True,"[74, 74, 74, 74]","[441, 1045, 1585, 2183]",37.727982709047225,50.0,1652.5000000038417,12.272017290952775,True,2,1,40,0,2,4,12.0,0.9338137965259741,51.68528360745418,55.401870530456335,11.912570654563567,16.07208831726733,0.007263157830571268
IT2,4,6,302,198.67549668874173,5,2,True,"[74, 74, 74, 74]","[441, 749, 1016, 1236]",93.24415345434716,78.0,2579.6599999957252,-15.244153454347156,True,2,1,41,0,2,4,12.0,0.9338137965259741,51.68528360745418,55.401870530456335,-21.601423424992717,-23.681973289357092,0.07229502621911084
IT2,4,2,504,119.04761904761905,3,2,True,"[74, 74, 74, 74]","[406, 807, 1289, 1736]",56.30039424560527,50.0,3058.8900000001304,-6.300394245605268,True,2,1,42,0,2,4,12.0,0.9338137965259741,51.68528360745418,55.401870530456335,-8.666356133171284,-10.275563632051025,0.0035920513446172845
IT2,4,4,652,92.02453987730061,2,2,True,"[74, 74, 74, 74]","[464, 900, 1486, 2096]",37.727982709047225,50.0,1646.4100000010803,12.272017290952775,True,2,1,43,0,2,4,12.0,0.9338137965259741,51.68528360745418,55.401870530456335,11.912570654563567,16.07208831726733,0.007263157830571268
IT2,4,2,463,129.58963282937364,4,2,True,"[74, 74, 74, 74]","[470, 842, 1126, 1596]",62.42097125758927,84.0,3138.480000001611,21.579028742410728,True,2,1,44,0,2,4,12.0,0.9338137965259741,51.68528360745418,55.401870530456335,18.551815563036214,26.125414516126792,0.02017765686905202
IT2,4,6,774,77.51937984496124,2,0,True,"[74, 74, 74, 74]","[435, 882, 1614, 2403]",25.354902613380577,28.0,2872.074999999255,2.6450973866194225,True,2,1,45,0,2,4,12.0,0.9338137965259741,51.68528360745418,55.401870530456335,3.6224062850253596,4.636354764611421,0.0005862790674650711
IT2,4,7,302,198.67549668874173,5,2,True,"[74, 74, 74, 74]","[476, 795, 1004, 1254]",93.24415345434716,90.0,2789.9450000040233,-3.244153454347156,True,2,1,46,0,2,4,12.0,0.9338137965259741,51.68528360745418,55.401870530456335,-9.601423424992717,-11.319121981289644,0.011802158776555174
IT2,4,2,710,84.50704225352112,2,1,True,"[74, 74, 74, 74, 74]","[430, 848, 1544, 2218, 2850]",31.580629700998873,15.0,1896.9800000048708,-16.580629700998873,True,2,1,47,0,2,4,12.0,0.9338137965259741,51.68528360745418,55.401870530456335,-16.275932236298317,-18.423781975385793,0.020266681869986793
IT2,4,3,599,100.1669449081803,3,2,True,"[74, 74, 74, 74]","[401, 842, 1376, 1904]",43.84378078116181,42.0,5485.605000001611,-1.8437807811618114,True,2,1,48,0,2,4,12.0,0.9338137965259741,51.68528360745418,55.401870530456335,-2.8639624050705805,-3.5197418114486947,0.0005081927739762818
IT2,4,7,1000,60.0,1,1,True,"[74, 74, 74, 74, 74]","[453, 853, 2119, 3036, 3976]",6.875176187496734,37.0,6953.545000003884,30.124823812503266,True,2,1,49,0,2,4,12.0,0.9338137965259741,51.68528360745418,55.401870530456335,33.098634502726746,51.30169025585078,0.17565877995020202
IT2,4,6,599,100.1669449081803,3,2,True,"[74, 74, 74, 74]","[488, 1103, 1492, 2026]",43.84378078116181,40.0,6119.599999997998,-3.8437807811618114,True,2,1,50,0,2,4,12.0,0.9338137965259741,51.68528360745418,55.401870530456335,-4.8639624050705805,-5.903966851408542,0.00133508234278675
IT2,4,7,425,141.1764705882353,4,0,True,"[74, 74, 74, 74]","[453, 848, 1103, 1480]",68.5984388693479,93.0,4167.569999997737,24.401561130652098,True,2,1,51,0,2,4,12.0,0.9338137965259741,51.68528360745418,55.401870530456335,20.706950346381433,29.572454101147756,0.03143536048910726
IT2,4,6,1000,60.0,1,2,True,"[74, 74, 74, 74]","[453, 848, 2177, 3210]",6.875176187496734,8.0,3023.650000002701,1.1248238125032657,True,2,1,52,0,2,4,12.0,0.9338137965259741,51.68528360745418,55.401870530456335,4.098634502726746,5.261661651446576,0.001007881025038243
IT2,4,5,390,153.84615384615384,4,1,True,"[74, 74, 74, 74]","[424, 836, 1074, 1370]",74.79787473312055,93.0,2333.6699999999255,18.20212526687945,True,2,1,53,0,2,4,12.0,0.9338137965259741,51.68528360745418,55.401870530456335,13.837743484649422,18.90178141046501,0.018807710584501997
IT2,4,3,358,167.5977653631285,5,0,True,"[74, 74, 74]","[488, 830, 1091]",80.97360155738828,94.0,3041.144999995595,13.026398442611722,True,2,1,54,0,2,4,12.0,0.9338137965259741,51.68528360745418,55.401870530456335,7.994807125658497,10.519866575994214,0.009090116150007804
IT2,4,6,390,153.84615384615384,4,0,True,"[74, 74, 74, 74]","[499, 824, 1109, 1370]",74.79787473312055,90.0,2663.9550000038,15.202125266879449,True,2,1,55,0,2,4,12.0,0.9338137965259741,51.68528360745418,55.401870530456335,10.837743484649422,14.521663666546495,0.011882147856195688
IT2,4,5,599,100.1669449081803,3,0,True,"[74, 74, 74]","[1591, 1945, 2351]",43.84378078116181,50.0,2237.294999998994,6.156219218838189,True,2,1,56,0,2,4,12.0,0.9338137965259741,51.68528360745418,55.401870530456335,5.1360375949294195,6.636780524606028,0.0011181973107398369
IT2,4,4,425,141.1764705882353,4,2,True,"[74, 74, 74, 74]","[737, 969, 1254, 1544]",68.5984388693479,88.0,3035.3299999989104,19.401561130652098,True,2,1,57,0,2,4,12.0,0.9338137965259741,51.68528360745418,55.401870530456335,15.706950346381433,21.715203491637826,0.018389588732854806
IT2,4,5,774,77.51937984496124,2,2,True,"[74, 74, 74, 74]","[1016, 1236, 1834, 2502]",25.354902613380577,14.0,3989.6700000027195,-11.354902613380577,True,2,1,58,0,2,4,12.0,0.9338137965259741,51.68528360745418,55.401870530456335,-10.37759371497464,-12.176122432434594,0.011459126265246514
IT2,4,3,425,141.1764705882353,4,1,True,"[74, 74, 74]","[737, 1144, 1445]",68.5984388693479,92.0,2778.010000001872,23.401561130652098,True,2,1,59,0,2,4,12.0,0.9338137965259741,51.68528360745418,55.401870530456335,19.706950346381433,27.961438432256962,0.028548090733207476
IT2,4,4,550,109.0909090909091,3,1,True,"[74, 74, 74, 74]","[401, 998, 1387, 1898]",50.0,50.0,909.2499999969732,0.0,True,2,1,60,0,2,4,12.0,0.9338137965259741,51.68528360745418,55.401870530456335,-1.6852836074541813,-2.086428566722349,0.00015288936398786515
IT2,4,4,599,100.1669449081803,3,2,True,"[74, 74, 74, 74]","[424, 900, 1329, 1910]",43.84378078116181,50.0,1346.5300000023562,6.156219218838189,True,2,2,61,0,2,4,12.0,0.9338137965259741,51.68528360745418,55.401870530456335,5.1360375949294195,6.636780524606028,0.0011181973107398369
IT2,4,2,652,92.02453987730061,2,2,True,"[74, 74, 74, 74]","[517, 917, 1550, 2159]",37.727982709047225,33.0,3286.8600000001024,-4.727982709047225,True,2,2,62,0,2,4,12.0,0.9338137965259741,51.68528360745418,55.401870530456335,-5.087429345436433,-6.166678095209441,0.001819609462739443
IT2,4,3,550,109.0909090909091,3,1,True,"[74, 74, 74, 74]","[401, 848, 1364, 1869]",50.0,36.0,2881.345000001602,-14.0,True,2,2,63,0,2,4,12.0,0.9338137965259741,51.68528360745418,55.401870530456335,-15.685283607454181,-17.818720567017248,0.011601827461156204
IT2,4,7,774,77.51937984496124,2,0,True,"[74, 74, 74, 74]","[517, 911, 1736, 2438]",25.354902613380577,16.0,5203.145000006771,-9.354902613380577,True,2,2,64,0,2,4,12.0,0.9338137965259741,51.68528360745418,55.401870530456335,-8.37759371497464,-9.950822587197775,0.007796149583110172
IT2,4,3,302,198.67549668874173,5,1,True,"[74, 74, 74]","[499, 836, 1120]",93.24415345434716,92.0,3545.7450000031386,-1.2441534543471562,True,2,2,65,0,2,4,12.0,0.9338137965259741,51.68528360745418,55.401870530456335,-7.601423424992717,-9.072107278725637,0.00671271178455375
IT2,4,7,599,100.1669449081803,3,0,True,"[74, 74, 74, 74]","[453, 882, 1393, 1933]",43.84378078116181,50.0,1478.3200000019278,6.156219218838189,True,2,2,66,0,2,4,12.0,0.9338137965259741,51.68528360745418,55.401870530456335,5.1360375949294195,6.636780524606028,0.0011181973107398369
IT2,4,2,329,182.370820668693,5,0,True,"[74, 74, 74]","[650, 917, 1236]",87.06720173383901,91.0,2594.640000003157,3.9327982661609866,True,2,2,67,0,2,4,12.0,0.9338137965259741,51.68528360745418,55.401870530456335,-1.757129835143303,-2.174402238588064,3.822456754460349e-05
IT2,4,4,918,65.359477124183,1,0,True,"[74, 74, 74, 74]","[348, 784, 1782, 2653]",13.046873249910696,7.0,2855.4000000003725,-6.046873249910696,True,2,2,68,0,2,4,12.0,0.9338137965259741,51.68528360745418,55.401870530456335,-3.7398367293743746,-4.571228782718198,0.0038859043086204
IT2,4,6,550,109.0909090909091,3,0,True,"[74, 74, 74, 74]","[435, 824, 1306, 1811]",50.0,50.0,843.6900000013411,0.0,True,2,2,69,0,2,4,12.0,0.9338137965259741,51.68528360745418,55.401870530456335,-1.6852836074541813,-2.086428566722349,0.00015288936398786515
IT2,4,4,390,153.84615384615384,4,0,True,"[74, 74, 74, 74]","[412, 848, 1132, 1399]",74.79787473312055,87.0,2716.5150000001304,12.202125266879449,True,2,2,70,0,2,4,12.0,0.9338137965259741,51.68528360745418,55.401870530456335,7.8377434846494225,10.302901212876817,0.006539847532238791
IT2,4,2,550,109.0909090909091,3,1,True,"[74, 74, 74, 74]","[424, 871, 1591, 1916]",50.0,36.0,4520.019999996293,-14.0,True,2,2,71,0,2,4,12.0,0.9338137965259741,51.68528360745418,55.401870530456335,-15.685283607454181,-17.818720567017248,0.011601827461156204
IT2,4,6,425,141.1764705882353,4,2,True,"[74, 74, 74, 74]","[580, 940, 1202, 1515]",68.5984388693479,75.0,8683.559999997728,6.401561130652098,True,2,2,72,0,2,4,12.0,0.9338137965259741,51.68528360745418,55.401870530456335,2.706950346381433,3.444738678211512,0.000740333338581954
IT2,4,7,843,71.17437722419929,1,2,True,"[74, 74, 74, 74]","[522, 906, 1887, 2670]",19.194949373496982,29.0,8426.444999997271,9.805050626503018,True,2,2,73,0,2,4,12.0,0.9338137965259741,51.68528360745418,55.401870530456335,11.447864922419278,15.399196934589929,0.0115972465622136
IT2,4,6,329,182.370820668693,5,1,True,"[74, 74, 74, 74]","[499, 813, 1062, 1300]",87.06720173383901,87.0,3900.5550000001676,-0.0672017338390134,True,2,2,74,0,2,4,12.0,0.9338137965259741,51.68528360745418,55.401870530456335,-5.757129835143303,-6.949603848624429,0.0028946838492134104
IT2,4,5,504,119.04761904761905,3,2,True,"[74, 74, 74, 74]","[453, 882, 1231, 1736]",56.30039424560527,60.0,2270.779999998864,3.6996057543947316,True,2,2,75,0,2,4,12.0,0.9338137965259741,51.68528360745418,55.401870530456335,1.3336438668287158,1.6825546041223334,0.00010097889237721778
IT2,4,6,918,65.359477124183,1,0,True,"[74, 74, 74, 74]","[406, 935, 1968, 2868]",13.046873249910696,28.0,2131.7000000053085,14.953126750089304,True,2,2,76,0,2,4,12.0,0.9338137965259741,51.68528360745418,55.401870530456335,17.260163270625625,24.103583558027502,0.035259324260281194
IT2,4,5,425,141.1764705882353,4,0,True,"[74, 74, 74, 74]","[685, 1033, 1422, 1712]",68.5984388693479,89.0,3049.2200000006706,20.401561130652098,True,2,2,77,0,2,4,12.0,0.9338137965259741,51.68528360745418,55.401870530456335,16.706950346381433,23.24757998231842,0.020720627679456007
IT2,4,4,710,84.50704225352112,2,0,True,"[74, 74, 74, 74]","[377, 882, 1591, 2258]",31.580629700998873,20.0,3246.1150000016205,-11.580629700998873,True,2,2,78,0,2,4,12.0,0.9338137965259741,51.68528360745418,55.401870530456335,-11.275932236298317,-13.15767905308775,0.010140691348446824
IT2,4,7,390,153.84615384615384,4,1,True,"[74, 74, 74, 74]","[255, 726, 1080, 1399]",74.79787473312055,93.0,1984.309999999823,18.20212526687945,True,2,2,79,0,2,4,12.0,0.9338137965259741,51.68528360745418,55.401870530456335,13.837743484649422,18.90178141046501,0.018807710584501997
IT2,4,5,918,65.359477124183,1,1,True,"[74, 74, 74, 74]","[412, 923, 1904, 2804]",13.046873249910696,16.0,2454.335000002291,2.9531267500893037,True,2,2,80,0,2,4,12.0,0.9338137965259741,51.68528360745418,55.401870530456335,5.260163270625625,6.802512745416593,0.002011854437840072
IT2,4,3,390,153.84615384615384,4,0,True,"[74, 74]","[1074, 1393]",74.79787473312055,85.0,2401.9499999994878,10.202125266879449,True,2,2,81,0,2,4,12.0,0.9338137965259741,51.68528360745418,55.401870530456335,5.8377434846494225,7.577090316537745,0.003857904207572757
IT2,4,6,710,84.50704225352112,2,2,True,"[74, 74, 74, 74, 74]","[412, 836, 1492, 2101, 2734]",31.580629700998873,10.0,2808.9699999983422,-21.580629700998873,True,2,2,82,0,2,4,12.0,0.9338137965259741,51.68528360745418,55.401870530456335,-21.275932236298317,-23.370549351537043,0.033863799758691165
IT2,4,3,843,71.17437722419929,1,1,True,"[74, 74, 74, 74, 74]","[435, 819, 1625, 2409, 3204]",19.194949373496982,11.0,2028.3100000014529,-8.194949373496982,True,2,2,83,0,2,4,12.0,0.9338137965259741,51.68528360745418,55.401870530456335,-6.552135077580722,-7.870543524201273,0.006841426482412563
IT2,4,5,710,84.50704225352112,2,0,True,"[74, 74, 74, 74, 74]","[389, 853, 1434, 2049, 2676]",31.580629700998873,26.0,3853.9749999982305,-5.580629700998873,True,2,2,84,0,2,4,12.0,0.9338137965259741,51.68528360745418,55.401870530456335,-5.275932236298317,-6.38771465784636,0.002571390847255867
IT2,4,2,918,65.359477124183,1,0,True,"[74, 74, 74, 74]","[372, 917, 1974, 2862]",13.046873249910696,21.0,5843.825000003679,7.953126750089304,True,2,2,85,0,2,4,12.0,0.9338137965259741,51.68528360745418,55.401870530456335,10.260163270625625,13.697083713486073,0.01090021644948477
IT2,4,7,358,167.5977653631285,5,1,True,"[74, 74, 74, 74]","[435, 859, 1045, 1254]",80.97360155738828,96.0,3185.975000000093,15.026398442611722,True,2,2,86,0,2,4,12.0,0.9338137965259741,51.68528360745418,55.401870530456335,9.994807125658497,13.320242154924264,0.013574839933894302
IT2,4,2,390,153.84615384615384,4,1,True,"[74, 74, 74, 74]","[406, 801, 1045, 1370]",74.79787473312055,88.0,2302.909999998519,13.202125266879449,True,2,2,87,0,2,4,12.0,0.9338137965259741,51.68528360745418,55.401870530456335,8.837743484649422,11.691598498208842,0.008144696261963378
IT2,4,5,302,198.67549668874173,5,1,True,"[74, 74, 74, 74]","[424, 743, 998, 1248]",93.24415345434716,86.0,4877.980000004638,-7.244153454347156,True,2,2,88,0,2,4,12.0,0.9338137965259741,51.68528360745418,55.401870530456335,-13.601423424992717,-15.647938581288228,0.026260507830636187
IT2,4,3,652,92.02453987730061,2,2,True,"[74, 74, 74, 74]","[389, 789, 1474, 2142]",37.727982709047225,39.0,3296.884999996051,1.2720172909527747,True,2,2,89,0,2,4,12.0,0.9338137965259741,51.68528360745418,55.401870530456335,0.9125706545635666,1.1482835669850688,6.138527075097037e-06
IT2,4,4,358,167.5977653631285,5,0,True,"[74, 74, 74, 74]","[377, 789, 1103, 1428]",80.97360155738828,79.0,3310.490000003483,-1.9736015573882781,True,2,2,90,0,2,4,12.0,0.9338137965259741,51.68528360745418,55.401870530456335,-7.005192874341503,-8.39128584136978,0.004022795033600128
IT2,5,7,390,153.84615384615384,4,0,True,"[74, 74, 74, 74]","[186, 557, 807, 1202]",74.79787473312055,100.0,2448.274999995192,25.20212526687945,True,2,0,1,3,3,0,45.0,0.5834747008565491,52.035264261079156,35.75099555073338,30.23376155389211,79.71067062622262,0.02187174139812263
IT2,5,4,504,119.04761904761905,3,2,True,"[74, 74, 74, 74]","[488, 1039, 1544, 2043]",56.30039424560527,50.0,1298.1399999989662,-6.300394245605268,True,2,0,2,3,3,0,45.0,0.5834747008565491,52.035264261079156,35.75099555073338,-6.540171593929159,-11.909201758827086,0.0005515117012602441
IT2,5,6,390,153.84615384615384,4,1,True,"[74, 74, 74, 74]","[517, 900, 1173, 1533]",74.79787473312055,99.0,2755.794999997306,24.20212526687945,True,2,0,3,3,3,0,45.0,0.5834747008565491,52.035264261079156,35.75099555073338,29.23376155389211,76.25996513042465,0.020529379278626567
IT2,5,5,599,100.1669449081803,3,2,True,"[74, 74, 74, 74]","[435, 1097, 1776, 2444]",43.84378078116181,3.0,3220.535000000382,-40.84378078116181,True,2,0,4,3,3,0,45.0,0.5834747008565491,52.035264261079156,35.75099555073338,-44.63344494303869,-57.91007640328948,0.0254266229473351
IT2,5,4,652,92.02453987730061,2,1,True,"[74, 74, 74]","[342, 1097, 1840]",37.727982709047225,3.0,3582.9300000041258,-34.727982709047225,True,2,0,5,3,3,0,45.0,0.5834747008565491,52.035264261079156,35.75099555073338,-40.260527549731634,-54.185926235300066,0.02491575146169085
IT2,5,6,504,119.04761904761905,3,0,True,"[74, 74, 74, 74, 74]","[203, 610, 993, 1480, 1858]",56.30039424560527,50.0,2050.4650000002584,-6.300394245605268,True,2,0,6,3,3,0,45.0,0.5834747008565491,52.035264261079156,35.75099555073338,-6.540171593929159,-11.909201758827086,0.0005515117012602442
IT2,5,5,710,84.50704225352112,2,0,True,"[74, 74, 74, 74, 74]","[255, 575, 1422, 2159, 2856]",31.580629700998873,4.0,2462.054999996326,-27.580629700998873,True,2,0,7,3,3,0,45.0,0.5834747008565491,52.035264261079156,35.75099555073338,-34.86504774894116,-49.133735092367296,0.02422346550156536
IT2,5,3,302,198.67549668874173,5,2,True,"[74, 74, 74, 74, 74]","[75, 488, 697, 865, 1184]",93.24415345434716,89.0,2486.3100000002305,-4.244153454347156,True,2,0,8,3,3,0,45.0,0.5834747008565491,52.035264261079156,35.75099555073338,6.04430498408891,12.433095042414653,0.004321909222497867
IT2,5,6,652,92.02453987730061,2,0,True,"[74, 74, 74, 74]","[551, 784, 1190, 2003]",37.727982709047225,13.0,4095.0099999972736,-24.727982709047225,True,2,0,9,3,3,0,45.0,0.5834747008565491,52.035264261079156,35.75099555073338,-30.260527549731634,-44.38387064785176,0.014609495126948539
IT2,5,2,302,198.67549668874173,5,1,True,"[74, 74, 74]","[424, 668, 1033]",93.24415345434716,96.0,2004.1850000052364,2.755846545652844,True,2,0,10,3,3,0,45.0,0.5834747008565491,52.035264261079156,35.75099555073338,13.04430498408891,28.776157101748353,0.012474490981637965
IT2,5,3,599,100.1669449081803,3,0,True,"[74, 74, 74, 74]","[255, 998, 1683, 2293]",43.84378078116181,17.0,2576.6749999966123,-26.84378078116181,True,2,0,11,3,3,0,45.0,0.5834747008565491,52.035264261079156,35.75099555073338,-30.63344494303869,-44.78453587317591,0.01238745878845352
IT2,5,4,358,167.5977653631285,5,1,True,"[74, 74, 74, 74]","[238, 760, 1132, 1469]",80.97360155738828,96.0,3771.5099999986705,15.026398442611722,True,2,0,12,3,3,0,45.0,0.5834747008565491,52.035264261079156,35.75099555073338,21.81799390955331,52.65517961068182,0.016083867274378376
IT2,5,2,463,129.58963282937364,4,1,True,"[74, 74, 74, 74]","[366, 882, 1411, 1898]",62.42097125758927,50.0,1485.160000003816,-12.420971257589272,True,2,0,13,3,3,0,45.0,0.5834747008565491,52.035264261079156,35.75099555073338,-10.916506024396384,-19.075318282414557,0.001507334605817748
IT2,5,5,302,198.67549668874173,5,2,True,"[74, 74, 74]","[476, 795, 1074]",93.24415345434716,98.0,2701.8200000020443,4.755846545652844,True,2,0,14,3,3,0,45.0,0.5834747008565491,52.035264261079156,35.75099555073338,15.04430498408891,33.86770895306653,0.015579350849482622
IT2,5,3,710,84.50704225352112,2,1,True,"[74, 74, 74, 74]","[923, 1411, 2177, 2862]",31.580629700998873,9.0,2805.769999999029,-22.580629700998873,True,2,0,15,3,3,0,45.0,0.5834747008565491,52.035264261079156,35.75099555073338,-29.86504774894116,-43.95578717748683,0.018268301786441225
IT2,5,4,1000,60.0,1,0,True,"[74, 74, 74, 74]","[232, 447, 1207, 3477]",6.875176187496734,0.0,4155.960000003688,-6.875176187496734,True,2,0,16,3,3,0,45.0,0.5834747008565491,52.035264261079156,35.75099555073338,-21.200156576139854,-33.703475753233114,0.03185654603070667
IT2,5,7,599,100.1669449081803,3,1,True,"[74, 74, 74, 74, 74]","[58, 540, 1126, 1898, 2380]",43.84378078116181,50.0,992.2799999985727,6.156219218838189,True,2,0,17,3,3,0,45.0,0.5834747008565491,52.035264261079156,35.75099555073338,2.3665550569613103,4.695214576314638,4.915384989618363e-06
IT2,5,2,918,65.359477124183,1,1,True,"[74, 74, 74, 74]","[174, 563, 1846, 2815]",13.046873249910696,99.0,2533.8250000058906,85.9531267500893,True,2,0,18,3,3,0,45.0,0.5834747008565491,52.035264261079156,35.75099555073338,73.38695713948343,314.8888409993072,0.15903207695865593
IT2,5,7,329,182.370820668693,5,2,True,"[74, 74, 74, 74, 74]","[418, 639, 853, 1068, 1353]",87.06720173383901,50.0,1025.0599999999395,-37.06720173383901,True,2,0,19,3,3,0,45.0,0.5834747008565491,52.035264261079156,35.75099555073338,-28.539051546371468,-42.49628448145657,0.021885708214607058
IT2,5,5,463,129.58963282937364,4,0,True,"[74, 74, 74, 74, 74]","[192, 575, 969, 1382, 1817]",62.42097125758927,50.0,2912.750000003143,-12.420971257589272,True,2,0,20,3,3,0,45.0,0.5834747008565491,52.035264261079156,35.75099555073338,-10.916506024396384,-19.075318282414557,0.001507334605817748
IT2,5,6,1000,60.0,1,1,True,"[74, 74, 74]","[366, 2241, 3268]",6.875176187496734,6.0,3931.315000001632,-0.8751761874967343,True,2,0,21,3,3,0,45.0,0.5834747008565491,52.035264261079156,35.75099555073338,-15.200156576139854,-25.52476711334807,0.019345305451079643
IT2,5,2,504,119.04761904761905,3,2,True,"[74, 74, 74, 74]","[563, 998, 1608, 2020]",56.30039424560527,50.0,5624.004999997851,-6.300394245605268,True,2,0,22,3,3,0,45.0,0.5834747008565491,52.035264261079156,35.75099555073338,-6.540171593929159,-11.909201758827086,0.0005515117012602442
IT2,5,7,1000,60.0,1,0,True,"[74, 74]","[673, 1602]",6.875176187496734,11.0,1858.1450000056066,4.124823812503266,True,2,0,23,3,3,0,45.0,0.5834747008565491,52.035264261079156,35.75099555073338,-10.200156576139854,-17.9435366546947,0.011290525798121221
IT2,5,6,329,182.370820668693,5,1,True,,,87.06720173383901,93.0,2188.2449999975506,5.932798266160987,False,1,0,24,3,3,0,45.0,0.5834747008565491,52.035264261079156,35.75099555073338,14.460948453628532,32.362164629686944,0.010753509186771504
IT2,5,3,1000,60.0,1,0,True,"[74, 74, 74, 74, 74]","[1445, 1788, 2148, 2961, 3779]",6.875176187496734,96.0,3663.6600000056205,89.12482381250327,True,2,0,25,3,3,0,45.0,0.5834747008565491,52.035264261079156,35.75099555073338,74.79984342386015,326.4111162309548,0.20417916897038219
IT2,5,2,652,92.02453987730061,2,0,True,"[74, 74, 74]","[522, 1219, 1910]",37.727982709047225,10.0,4980.844999998226,-27.727982709047225,True,2,0,26,3,3,0,45.0,0.5834747008565491,52.035264261079156,35.75099555073338,-33.260527549731634,-47.52647911748369,0.017414231626323783
IT2,5,3,425,141.1764705882353,4,0,True,"[74, 74, 74, 74]","[528, 888, 1265, 1620]",68.5984388693479,67.0,6782.149999999092,-1.598438869347902,True,2,0,27,3,3,0,45.0,0.5834747008565491,52.035264261079156,35.75099555073338,1.6664816335479742,3.2837704092669706,0.00013146266543802903
IT2,5,7,652,92.02453987730061,2,0,True,"[74, 74, 74, 74]","[116, 615, 1318, 1962]",37.727982709047225,50.0,3051.6499999939697,12.272017290952775,True,2,0,28,3,3,0,45.0,0.5834747008565491,52.035264261079156,35.75099555073338,6.739472450268366,13.95873105802528,0.0002543065656170312
IT2,5,5,843,71.17437722419929,1,2,True,"[74, 74, 74]","[267, 656, 1451]",19.194949373496982,22.0,3193.534999998519,2.805050626503018,True,2,0,29,3,3,0,45.0,0.5834747008565491,52.035264261079156,35.75099555073338,-8.009039703314638,-14.382527251899633,0.004273219302214835
IT2,5,4,425,141.1764705882353,4,0,True,"[74, 74, 74, 74]","[412, 801, 1225, 1602]",68.5984388693479,86.0,3124.7000000003027,17.401561130652098,True,2,0,30,3,3,0,45.0,0.5834747008565491,52.035264261079156,35.75099555073338,20.666481633547974,49.28480259735708,0.007982350837173295
IT2,5,5,329,182.370820668693,5,0,True,"[74, 74, 74, 74, 74]","[244, 569, 772, 975, 1213]",87.06720173383901,82.0,1587.744999997085,-5.067201733839013,True,2,1,31,3,3,0,45.0,0.5834747008565491,52.035264261079156,35.75099555073338,3.460948453628532,6.940405410838934,0.00154659647802559
IT2,5,4,710,84.50704225352112,2,2,True,"[74, 74, 74, 74]","[447, 1248, 1997, 2699]",31.580629700998873,76.0,2905.0849999985076,44.41937029900113,True,2,1,32,3,3,0,45.0,0.5834747008565491,52.035264261079156,35.75099555073338,37.13495225105884,105.43912993024836,0.01939143385687891
IT2,5,2,1000,60.0,1,0,True,"[74, 74]","[656, 1660]",6.875176187496734,15.0,4161.184999997204,8.124823812503266,True,2,1,33,3,3,0,45.0,0.5834747008565491,52.035264261079156,35.75099555073338,-6.200156576139854,-11.326564509132158,0.0063987957099782685
IT2,5,4,390,153.84615384615384,4,2,True,[74],[255],74.79787473312055,83.0,2217.8550000025425,8.202125266879449,True,2,1,34,3,3,0,45.0,0.5834747008565491,52.035264261079156,35.75099555073338,13.233761553892109,29.250050136676712,0.004832676430218803
IT2,5,7,302,198.67549668874173,5,1,True,,,93.24415345434716,82.0,2598.7200000017183,-11.244153454347156,False,1,1,35,3,3,0,45.0,0.5834747008565491,52.035264261079156,35.75099555073338,-0.9556950159110897,-1.8358588629989216,0.00039177067407186777
IT2,5,5,652,92.02453987730061,2,1,True,[74],[1457],37.727982709047225,50.0,2059.9099999963073,12.272017290952775,True,2,1,36,3,3,0,45.0,0.5834747008565491,52.035264261079156,35.75099555073338,6.739472450268366,13.95873105802528,0.0002543065656170312
IT2,5,6,358,167.5977653631285,5,0,True,,,80.97360155738828,50.0,2365.929999999935,-30.973601557388278,False,1,1,37,3,3,0,45.0,0.5834747008565491,52.035264261079156,35.75099555073338,-24.18200609044669,-37.427567915992256,0.012659445160158364
IT2,5,5,390,153.84615384615384,4,2,True,"[74, 74, 74]","[906, 1231, 1608]",74.79787473312055,12.0,4086.8400000035763,-62.79787473312055,True,2,1,38,3,3,0,45.0,0.5834747008565491,52.035264261079156,35.75099555073338,-57.76623844610789,-67.37146408729419,0.06646458511179705
IT2,5,4,329,182.370820668693,5,0,True,,,87.06720173383901,73.0,2018.449999995879,-14.067201733839013,False,1,1,39,3,3,0,45.0,0.5834747008565491,52.035264261079156,35.75099555073338,-5.539051546371468,-10.182665711813675,0.00017799522642004023
IT2,5,2,425,141.1764705882353,4,2,True,"[74, 74, 74]","[766, 1109, 1492]",68.5984388693479,50.0,3386.4699999976438,-18.598438869347902,True,2,1,40,3,3,0,45.0,0.5834747008565491,52.035264261079156,35.75099555073338,-15.333518366452026,-25.71708481647126,0.0033889692940867098
IT2,5,3,329,182.370820668693,5,1,True,"[74, 74, 74, 74, 74]","[406, 644, 819, 1016, 1202]",87.06720173383901,81.0,3024.6299999998882,-6.067201733839013,True,2,1,41,3,3,0,45.0,0.5834747008565491,52.035264261079156,35.75099555073338,2.460948453628532,4.886994539975532,0.0011205595688126414
IT2,5,7,504,119.04761904761905,3,2,True,"[74, 74, 74, 74]","[668, 1022, 1649, 1997]",56.30039424560527,77.0,2278.8650000002235,20.69960575439473,True,2,1,42,3,3,0,45.0,0.5834747008565491,52.035264261079156,35.75099555073338,20.45982840607084,48.687869893640475,0.004816108724155292
IT2,5,3,843,71.17437722419929,1,2,True,,,19.194949373496982,6.0,1678.4150000021327,-13.194949373496982,False,1,1,43,3,3,0,45.0,0.5834747008565491,52.035264261079156,35.75099555073338,-24.009039703314638,-37.21737867655242,0.022071819357332885
IT2,5,6,774,77.51937984496124,2,1,True,,,25.354902613380577,50.0,2437.675000000978,24.645097386619423,False,1,1,44,3,3,0,45.0,0.5834747008565491,52.035264261079156,35.75099555073338,15.586471079249279,35.28229729894413,0.0029244309322135845
IT2,5,3,390,153.84615384615384,4,2,True,,,74.79787473312055,50.0,528.7600000011735,-24.79787473312055,False,1,1,45,3,3,0,45.0,0.5834747008565491,52.035264261079156,35.75099555073338,-19.76623844610789,-31.834501360997145,0.006825963017606043
IT2,5,6,918,65.359477124183,1,2,True,[74],[743],13.046873249910696,4.0,4623.5149999993155,-9.046873249910696,True,2,1,46,3,3,0,45.0,0.5834747008565491,52.035264261079156,35.75099555073338,-21.61304286051657,-34.23206875322982,0.024773442270566257
IT2,5,3,504,119.04761904761905,3,1,True,,,56.30039424560527,50.0,704.0800000032177,-6.300394245605268,False,1,1,47,3,3,0,45.0,0.5834747008565491,52.035264261079156,35.75099555073338,-6.540171593929159,-11.909201758827086,0.0005515117012602442
IT2,5,5,918,65.359477124183,1,1,True,"[74, 74, 74]","[563, 1196, 2548]",13.046873249910696,50.0,1278.0600000041304,36.953126750089304,True,2,1,48,3,3,0,45.0,0.5834747008565491,52.035264261079156,35.75099555073338,24.38695713948343,60.45109679642211,0.012524826118914515
IT2,5,4,550,109.0909090909091,3,0,True,"[74, 74]","[639, 1950]",50.0,50.0,2894.2900000037625,0.0,True,2,1,49,3,3,0,45.0,0.5834747008565491,52.035264261079156,35.75099555073338,-2.0352642610791563,-3.8691685860216225,0.00010411146753467766
IT2,5,2,329,182.370820668693,5,0,True,,,87.06720173383901,94.0,2834.414999997476,6.932798266160987,False,1,1,50,3,3,0,45.0,0.5834747008565491,52.035264261079156,35.75099555073338,15.460948453628532,34.95346690632932,0.012001456406421446
IT2,5,5,550,109.0909090909091,3,1,True,"[74, 74, 74, 74]","[261, 1016, 1562, 2130]",50.0,50.0,5217.94999999844,0.0,True,2,1,51,3,3,0,45.0,0.5834747008565491,52.035264261079156,35.75099555073338,-2.0352642610791563,-3.8691685860216225,0.00010411146753467766
IT2,5,7,843,71.17437722419929,1,1,True,"[74, 74, 74]","[377, 1231, 3187]",19.194949373496982,50.0,1932.020000000135,30.805050626503018,True,2,1,52,3,3,0,45.0,0.5834747008565491,52.035264261079156,35.75099555073338,19.990960296685362,47.34234705815231,0.006435754156178112
IT2,5,2,599,100.1669449081803,3,0,True,"[74, 74, 74, 74]","[499, 1271, 1800, 2235]",43.84378078116181,50.0,7756.694999996456,6.156219218838189,True,2,1,53,3,3,0,45.0,0.5834747008565491,52.035264261079156,35.75099555073338,2.3665550569613103,4.695214576314638,4.915384989618363e-06
IT2,5,7,710,84.50704225352112,2,1,True,"[74, 74, 74, 74]","[430, 1358, 1927, 2537]",31.580629700998873,50.0,5580.504999998142,18.419370299001127,True,2,1,54,3,3,0,45.0,0.5834747008565491,52.035264261079156,35.75099555073338,11.134952251058841,24.096164188953917,0.0010735021414425268
IT2,5,6,425,141.1764705882353,4,2,True,,,68.5984388693479,50.0,3383.605000002659,-18.598438869347902,False,1,1,55,3,3,0,45.0,0.5834747008565491,52.035264261079156,35.75099555073338,-15.333518366452026,-25.71708481647126,0.0033889692940867098
IT2,5,3,652,92.02453987730061,2,2,True,"[74, 74, 74, 74]","[580, 1231, 1892, 2485]",37.727982709047225,50.0,1336.4749999964843,12.272017290952775,True,2,1,56,3,3,0,45.0,0.5834747008565491,52.035264261079156,35.75099555073338,6.739472450268366,13.95873105802528,0.0002543065656170312
IT2,5,7,463,129.58963282937364,4,2,True,"[74, 74]","[1324, 1556]",62.42097125758927,82.0,6087.854999998002,19.579028742410728,True,2,1,57,3,3,0,45.0,0.5834747008565491,52.035264261079156,35.75099555073338,21.083493975603616,50.49667995507121,0.006324144581183143
IT2,5,4,843,71.17437722419929,1,2,True,"[74, 74, 74]","[267, 1283, 2914]",19.194949373496982,50.0,1207.2800000023562,30.805050626503018,True,2,1,58,3,3,0,45.0,0.5834747008565491,52.035264261079156,35.75099555073338,19.990960296685362,47.34234705815231,0.006435754156178112
IT2,5,6,599,100.1669449081803,3,2,True,"[74, 74]","[1707, 2363]",43.84378078116181,50.0,1742.6599999963073,6.156219218838189,True,2,1,59,3,3,0,45.0,0.5834747008565491,52.035264261079156,35.75099555073338,2.3665550569613103,4.695214576314638,4.915384989618363e-06
IT2,5,2,710,84.50704225352112,2,2,True,[74],[2833],31.580629700998873,68.0,5066.270000002929,36.41937029900113,True,2,1,60,3,3,0,45.0,0.5834747008565491,52.035264261079156,35.75099555073338,29.13495225105884,75.92262119577335,0.0113395553586957
IT2,5,7,425,141.1764705882353,4,1,True,"[74, 74, 74]","[546, 1219, 1649]",68.5984388693479,50.0,3930.4950000005774,-18.598438869347902,True,2,2,61,3,3,0,45.0,0.5834747008565491,52.035264261079156,35.75099555073338,-15.333518366452026,-25.71708481647126,0.0033889692940867098
IT2,5,3,774,77.51937984496124,2,0,True,"[74, 74, 74, 74, 74, 74]","[186, 604, 888, 2067, 2490, 2966]",25.354902613380577,50.0,5015.970000000438,24.645097386619423,True,2,2,62,3,3,0,45.0,0.5834747008565491,52.035264261079156,35.75099555073338,15.586471079249279,35.28229729894413,0.0029244309322135845
IT2,5,6,463,129.58963282937364,4,0,True,"[74, 74, 74]","[766, 1242, 1892]",62.42097125758927,50.0,3809.8899999967543,-12.420971257589272,True,2,2,63,3,3,0,45.0,0.5834747008565491,52.035264261079156,35.75099555073338,-10.916506024396384,-19.075318282414557,0.001507334605817748
IT2,5,7,918,65.359477124183,1,2,True,"[74, 74]","[1556, 2101]",13.046873249910696,50.0,3450.5700000009965,36.953126750089304,True,2,2,64,3,3,0,45.0,0.5834747008565491,52.035264261079156,35.75099555073338,24.38695713948343,60.45109679642211,0.012524826118914515
IT2,5,6,710,84.50704225352112,2,2,True,"[74, 74, 74, 74]","[784, 1382, 2096, 2769]",31.580629700998873,50.0,1273.4100000016624,18.419370299001127,True,2,2,65,3,3,0,45.0,0.5834747008565491,52.035264261079156,35.75099555073338,11.134952251058841,24.096164188953917,0.0010735021414425268
IT2,5,7,358,167.5977653631285,5,0,True,"[74, 74]","[517, 958]",80.97360155738828,50.0,8573.299999996438,-30.973601557388278,True,2,2,66,3,3,0,45.0,0.5834747008565491,52.035264261079156,35.75099555073338,-24.18200609044669,-37.427567915992256,0.012659445160158364
IT2,5,6,843,71.17437722419929,1,0,True,"[74, 74, 74]","[2328, 2810, 3413]",19.194949373496982,50.0,2835.835000005318,30.805050626503018,True,2,2,67,3,3,0,45.0,0.5834747008565491,52.035264261079156,35.75099555073338,19.990960296685362,47.34234705815231,0.006435754156178112
IT2,5,7,774,77.51937984496124,2,2,True,"[74, 74, 74, 74]","[1126, 1573, 2078, 2920]",25.354902613380577,50.0,5432.83499999973,24.645097386619423,True,2,2,68,3,3,0,45.0,0.5834747008565491,52.035264261079156,35.75099555073338,15.586471079249279,35.28229729894413,0.0029244309322135845
IT2,5,5,504,119.04761904761905,3,0,True,"[74, 74, 74, 74]","[424, 975, 1480, 1863]",56.30039424560527,50.0,4185.160000000964,-6.300394245605268,True,2,2,69,3,3,0,45.0,0.5834747008565491,52.035264261079156,35.75099555073338,-6.540171593929159,-11.909201758827086,0.0005515117012602442
IT2,5,4,918,65.359477124183,1,1,True,"[74, 74, 74, 74, 74]","[592, 1393, 2415, 2937, 3675]",13.046873249910696,50.0,1963.1249999947613,36.953126750089304,True,2,2,70,3,3,0,45.0,0.5834747008565491,52.035264261079156,35.75099555073338,24.38695713948343,60.45109679642211,0.012524826118914515
IT2,5,2,550,109.0909090909091,3,1,True,[74],[493],50.0,16.0,6412.270000000717,-34.0,True,2,2,71,3,3,0,45.0,0.5834747008565491,52.035264261079156,35.75099555073338,-36.035264261079156,-50.274814812020246,0.015383083697141153
IT2,5,5,425,141.1764705882353,4,1,True,"[74, 74, 74]","[551, 1010, 1689]",68.5984388693479,77.0,4418.864999999641,8.401561130652098,True,2,2,72,3,3,0,45.0,0.5834747008565491,52.035264261079156,35.75099555073338,11.666481633547974,25.381636319042062,0.002751452377622036
IT2,5,4,774,77.51937984496124,2,0,True,"[74, 74, 74]","[354, 2618, 3077]",25.354902613380577,50.0,9775.59000000474,24.645097386619423,True,2,2,73,3,3,0,45.0,0.5834747008565491,52.035264261079156,35.75099555073338,15.586471079249279,35.28229729894413,0.0029244309322135845
IT2,5,2,390,153.84615384615384,4,0,True,"[74, 74]","[1051, 1457]",74.79787473312055,75.0,5372.84999999986,0.20212526687944887,True,2,2,74,3,3,0,45.0,0.5834747008565491,52.035264261079156,35.75099555073338,5.2337615538921085,10.680022921871794,0.0010650951685058448
IT2,5,3,550,109.0909090909091,3,2,True,"[74, 74, 74]","[493, 1068, 1567]",50.0,50.0,3651.709999998333,0.0,True,2,2,75,3,3,0,45.0,0.5834747008565491,52.035264261079156,35.75099555073338,-2.0352642610791563,-3.8691685860216225,0.00010411146753467766
IT2,5,4,463,129.58963282937364,4,1,True,,,62.42097125758927,50.0,2869.46500000346,-12.420971257589272,False,1,2,76,3,3,0,45.0,0.5834747008565491,52.035264261079156,35.75099555073338,-10.916506024396384,-19.075318282414557,0.001507334605817748
IT2,5,2,843,71.17437722419929,1,2,True,"[74, 74, 74, 74]","[639, 1080, 2432, 3193]",19.194949373496982,50.0,3875.7549999937182,30.805050626503018,True,2,2,77,3,3,0,45.0,0.5834747008565491,52.035264261079156,35.75099555073338,19.990960296685362,47.34234705815231,0.006435754156178112
IT2,5,3,358,167.5977653631285,5,0,True,,,80.97360155738828,50.0,4450.820000005537,-30.973601557388278,False,1,2,78,3,3,0,45.0,0.5834747008565491,52.035264261079156,35.75099555073338,-24.18200609044669,-37.427567915992256,0.012659445160158364
IT2,5,5,774,77.51937984496124,2,2,True,"[74, 74, 74]","[221, 1858, 2444]",25.354902613380577,50.0,766.4549999972805,24.645097386619423,True,2,2,79,3,3,0,45.0,0.5834747008565491,52.035264261079156,35.75099555073338,15.586471079249279,35.28229729894413,0.0029244309322135845
IT2,5,3,918,65.359477124183,1,1,True,"[74, 74, 74]","[505, 1614, 2955]",13.046873249910696,10.0,3758.304999995744,-3.0468732499106963,True,2,2,80,3,3,0,45.0,0.5834747008565491,52.035264261079156,35.75099555073338,-15.613042860516568,-26.11857029118102,0.014949561336882038
IT2,5,6,302,198.67549668874173,5,2,True,"[74, 74, 74]","[464, 679, 882]",93.24415345434716,87.0,2651.190000004135,-6.244153454347156,True,2,2,81,3,3,0,45.0,0.5834747008565491,52.035264261079156,35.75099555073338,4.04430498408891,8.156791685244787,0.0027681509422624695
IT2,5,4,599,100.1669449081803,3,1,True,"[74, 74, 74, 74]","[604, 1173, 1771, 2432]",43.84378078116181,67.0,4099.80500000529,23.15621921883819,True,2,2,82,3,3,0,45.0,0.5834747008565491,52.035264261079156,35.75099555073338,19.36655505696131,45.56936111800217,0.0036838855261087555
IT2,5,5,358,167.5977653631285,5,1,True,"[74, 74, 74, 74]","[859, 1074, 1248, 1451]",80.97360155738828,98.0,2755.9049999981653,17.026398442611722,True,2,2,83,3,3,0,45.0,0.5834747008565491,52.035264261079156,35.75099555073338,23.81799390955331,58.69086028211197,0.018831556236798254
IT2,5,6,550,109.0909090909091,3,1,True,"[74, 74, 74]","[377, 935, 1591]",50.0,50.0,3348.639999996405,0.0,True,2,2,84,3,3,0,45.0,0.5834747008565491,52.035264261079156,35.75099555073338,-2.0352642610791563,-3.8691685860216225,0.00010411146753467766
IT2,5,3,463,129.58963282937364,4,1,True,"[74, 74, 74, 74]","[348, 842, 1120, 1724]",62.42097125758927,73.0,7034.554999998305,10.579028742410728,True,2,2,85,3,3,0,45.0,0.5834747008565491,52.035264261079156,35.75099555073338,12.083493975603616,26.39947044203729,0.0021380324463560496
IT2,5,4,302,198.67549668874173,5,2,True,"[74, 74, 74, 74]","[592, 807, 993, 1184]",93.24415345434716,92.0,3977.6649999986403,-1.2441534543471562,True,2,2,86,3,3,0,45.0,0.5834747008565491,52.035264261079156,35.75099555073338,9.04430498408891,19.166647333260684,0.007298838971021489
IT2,5,2,774,77.51937984496124,2,1,True,"[74, 74, 74]","[41, 586, 2415]",25.354902613380577,9.0,3568.4699999983422,-16.354902613380577,True,2,2,87,3,3,0,45.0,0.5834747008565491,52.035264261079156,35.75099555073338,-25.41352892075072,-38.90391447235889,0.018193184705969298
IT2,5,5,1000,60.0,1,0,True,"[74, 74, 74, 74, 74, 74, 74]","[139, 673, 1190, 1759, 2252, 3437, 3860]",6.875176187496734,50.0,3440.445000000298,43.124823812503266,True,2,2,88,3,3,0,45.0,0.5834747008565491,52.035264261079156,35.75099555073338,28.799843423860146,74.78332984359706,0.02244637440304594
IT2,5,2,358,167.5977653631285,5,2,True,"[74, 74]","[354, 1016]",80.97360155738828,72.0,3685.839999998454,-8.973601557388278,True,2,2,89,3,3,0,45.0,0.5834747008565491,52.035264261079156,35.75099555073338,-2.1820060904466914,-4.142277765966247,3.8065140068112637e-06
IT2,5,7,550,109.0909090909091,3,0,True,"[74, 74, 74]","[836, 1254, 1800]",50.0,50.0,4088.649999998044,0.0,True,2,2,90,3,3,0,45.0,0.5834747008565491,52.035264261079156,35.75099555073338,-2.0352642610791563,-3.8691685860216225,0.00010411146753467766
IT2,7,6,463,129.58963282937364,4,0,True,"[74, 74, 74, 74, 74]","[240, 589, 1000, 1429, 1869]",62.42097125758927,64.0,1936.7649999912828,1.5790287424107277,True,2,0,1,3,3,0,21.0,0.9351444042562729,49.35628836128821,56.090511798731505,0.7097389412014721,0.8809284172456444,1.2252181484772481e-05
IT2,7,3,710,84.50704225352112,2,0,True,"[74, 74, 74, 74, 74]","[248, 608, 1128, 1659, 2280]",31.580629700998873,18.0,2524.4149998761714,-13.580629700998873,True,2,0,2,3,3,0,21.0,0.9351444042562729,49.35628836128821,56.090511798731505,-10.69325021966166,-12.378474606490581,0.012950340008054343
IT2,7,7,329,182.370820668693,5,0,True,"[74, 74, 74, 74]","[261, 651, 960, 1309]",87.06720173383901,83.0,2764.064999995753,-4.067201733839013,True,2,0,3,3,3,0,21.0,0.9351444042562729,49.35628836128821,56.090511798731505,-7.938654685245382,-9.344461581222816,0.006173891961634568
IT2,7,4,774,77.51937984496124,2,1,True,"[74, 74, 74, 74]","[309, 811, 1651, 2440]",25.354902613380577,24.0,1517.1499999705702,-1.3549026133805775,True,2,0,4,3,3,0,21.0,0.9351444042562729,49.35628836128821,56.090511798731505,2.2908341536130656,2.871385508356974,4.4884334948745544e-05
IT2,7,3,504,119.04761904761905,3,0,True,"[74, 74, 74, 74]","[251, 661, 1061, 1611]",56.30039424560527,50.0,1499.2499998770654,-6.300394245605268,True,2,0,5,3,3,0,21.0,0.9351444042562729,49.35628836128821,56.090511798731505,-6.424135116683857,-7.6317835154234235,0.0026606237231547158
IT2,7,2,918,65.359477124183,1,1,True,"[74, 74, 74, 74, 74]","[251, 691, 1221, 2069, 3000]",13.046873249910696,0.0,2417.6350000780076,-13.046873249910696,True,2,0,6,3,3,0,21.0,0.9351444042562729,49.35628836128821,56.090511798731505,-7.901892521770108,-9.303267946438792,0.02104611493070244
IT2,7,6,652,92.02453987730061,2,1,True,"[74, 74, 74, 74]","[259, 669, 1419, 2128]",37.727982709047225,33.0,2137.875000014901,-4.727982709047225,True,2,0,7,3,3,0,21.0,0.9351444042562729,49.35628836128821,56.090511798731505,-2.5894137482397284,-3.149252800989707,0.0013135610733353846
IT2,7,7,599,100.1669449081803,3,1,True,"[74, 74, 74, 74]","[248, 699, 1309, 1880]",43.84378078116181,50.0,1199.06000001356,6.156219218838189,True,2,0,8,3,3,0,21.0,0.9351444042562729,49.35628836128821,56.090511798731505,7.5498213733082125,9.778892210836057,0.001835805233454093
IT2,7,6,1000,60.0,1,1,True,"[74, 74, 74, 74]","[280, 1299, 2280, 3179]",6.875176187496734,6.0,1567.005000077188,-0.8751761874967343,True,2,0,9,3,3,0,21.0,0.9351444042562729,49.35628836128821,56.090511798731505,5.021580416180427,6.402081869646992,8.851468530892698e-05
IT2,7,7,710,84.50704225352112,2,1,True,"[74, 74, 74, 74]","[261, 691, 1571, 2261]",31.580629700998873,33.0,2831.9749999791384,1.4193702990011268,True,2,0,10,3,3,0,21.0,0.9351444042562729,49.35628836128821,56.090511798731505,4.30674978033834,5.466304465179926,0.0002352901060613652
IT2,7,3,918,65.359477124183,1,2,True,"[74, 74, 74, 74]","[301, 931, 1960, 2880]",13.046873249910696,16.0,2264.82000015676,2.9531267500893037,True,2,0,11,3,3,0,21.0,0.9351444042562729,49.35628836128821,56.090511798731505,8.098107478229892,10.525227987290222,0.002686244339967943
IT2,7,5,425,141.1764705882353,4,1,True,"[74, 74, 74, 74]","[261, 691, 971, 1320]",68.5984388693479,85.0,1955.470000160858,16.401561130652098,True,2,0,12,3,3,0,21.0,0.9351444042562729,49.35628836128821,56.090511798731505,14.779792541928899,20.038648259896444,0.01664474040304906
IT2,7,2,329,182.370820668693,5,0,True,"[74, 74, 74, 74]","[251, 640, 931, 1171]",87.06720173383901,99.0,3434.6749999094754,11.932798266160987,True,2,0,13,3,3,0,21.0,0.9351444042562729,49.35628836128821,56.090511798731505,8.061345314754618,10.475028429124912,0.013981238884706482
IT2,7,4,463,129.58963282937364,4,2,True,"[74, 74, 74, 74, 74]","[269, 621, 1029, 1469, 1909]",62.42097125758927,67.0,1942.9999999701977,4.579028742410728,True,2,0,14,3,3,0,21.0,0.9351444042562729,49.35628836128821,56.090511798731505,3.709738941201472,4.69107378686197,0.0007194491490215878
IT2,7,5,918,65.359477124183,1,1,True,"[74, 74, 74, 74, 74]","[280, 739, 1371, 2069, 2931]",13.046873249910696,0.0,3261.6949998773634,-13.046873249910696,True,2,0,15,3,3,0,21.0,0.9351444042562729,49.35628836128821,56.090511798731505,-7.901892521770108,-9.303267946438792,0.02104611493070244
IT2,7,4,504,119.04761904761905,3,2,True,"[74, 74, 74, 74, 74]","[240, 680, 1091, 1571, 2040]",56.30039424560527,50.0,824.8299998231232,-6.300394245605268,True,2,0,16,3,3,0,21.0,0.9351444042562729,49.35628836128821,56.090511798731505,-6.424135116683857,-7.6317835154234235,0.0026606237231547158
IT2,7,3,425,141.1764705882353,4,2,True,"[74, 74, 74, 74, 74]","[240, 640, 949, 1339, 1731]",68.5984388693479,85.0,3260.9899998642504,16.401561130652098,True,2,0,17,3,3,0,21.0,0.9351444042562729,49.35628836128821,56.090511798731505,14.779792541928899,20.038648259896444,0.01664474040304906
