subject,pitch,ioi,tempo,loudness,tap_condition,key_press,tap_times,true_score,response,rt,error,tapped,tap_type,block,trial,test_correct,test_incorrect,test_skipped,extreme_responses,pearsonr,intercept,slope,residual,cooks
1,4,710,2,0,False,,,31.58063,27.0,4512.719999998808,-4.580629999999999,False,0,0,1,4,2,0,7.0,0.9169932084886164,48.940838660086015,44.636415557812505,-5.497345320497146,0.00269763273570943
1,7,329,5,1,False,,,87.0672,90.0,4844.2550000036135,2.9328000000000003,False,0,0,2,4,2,0,7.0,0.9169932084886164,48.940838660086015,44.636415557812505,7.96822093677585,0.014412209435775977
1,6,710,2,2,False,,,31.58063,31.0,2583.980000053998,-0.5806299999999993,False,0,0,3,4,2,0,7.0,0.9169932084886164,48.940838660086015,44.636415557812505,-1.4973453204971463,0.00024385785073447285
1,4,358,5,0,False,,,80.9736,83.0,4429.515000025276,2.0263999999999953,False,0,0,4,4,2,0,7.0,0.9169932084886164,48.940838660086015,44.636415557812505,6.408150331160144,0.007539516395626439
1,5,550,3,1,False,,,50.0,50.0,582.8299999702722,0.0,False,0,0,5,4,2,0,7.0,0.9169932084886164,48.940838660086015,44.636415557812505,1.0591613399139845,9.848767259637384e-05
1,3,302,5,0,False,,,93.24415,79.0,1621.8649999937043,-14.244150000000005,False,0,0,6,4,2,0,7.0,0.9169932084886164,48.940838660086015,44.636415557812505,-8.54611874076707,0.010658113304384197
1,2,425,4,2,False,,,68.59844,48.0,4346.949999977369,-20.598439999999997,False,0,0,7,4,2,0,7.0,0.9169932084886164,48.940838660086015,44.636415557812505,-17.544191582061714,0.023201449994047996
1,7,1000,1,1,False,,,6.87518,0.0,2752.6850000140257,-6.87518,False,0,0,8,4,2,0,7.0,0.9169932084886164,48.940838660086015,44.636415557812505,-10.442087529039151,0.027230969559817603
1,3,710,2,0,False,,,31.58063,32.0,3271.3000000221655,0.4193700000000007,False,0,0,9,4,2,0,7.0,0.9169932084886164,48.940838660086015,44.636415557812505,-0.4973453204971463,4.270950167395917e-05
1,6,1000,1,1,False,,,6.87518,24.0,3935.044999991078,17.12482,False,0,0,10,4,2,0,7.0,0.9169932084886164,48.940838660086015,44.636415557812505,13.557912470960849,0.033992164724474826
1,2,710,2,2,False,,,31.58063,33.0,2266.8849999899976,1.4193700000000007,False,0,0,11,4,2,0,7.0,0.9169932084886164,48.940838660086015,44.636415557812505,0.5026546795028537,6.4793014867357875e-06
1,7,599,3,1,False,,,43.84378,47.0,1542.2249999828637,3.1562199999999976,False,0,0,12,4,2,0,7.0,0.9169932084886164,48.940838660086015,44.636415557812505,3.554992526255049,0.0007815804570111631
1,2,843,1,0,False,,,19.19495,9.0,1924.8549999902025,-10.194949999999999,False,0,0,13,4,2,0,7.0,0.9169932084886164,48.940838660086015,44.636415557812505,-12.440297839205193,0.022457536879910776
1,7,425,4,1,False,,,68.59844,75.0,1537.7999999909662,6.4015600000000035,False,0,0,14,4,2,0,7.0,0.9169932084886164,48.940838660086015,44.636415557812505,9.455808417938286,0.008657607570357936
1,5,1000,1,0,False,,,6.87518,6.0,2059.290000004694,-0.8751800000000003,False,0,0,15,4,2,0,7.0,0.9169932084886164,48.940838660086015,44.636415557812505,-4.442087529039151,0.006032808482270407
1,4,463,4,1,False,,,62.42097,57.0,2888.035000010859,-5.420969999999997,False,0,0,16,4,2,0,7.0,0.9169932084886164,48.940838660086015,44.636415557812505,-3.0293913537940185,0.00039187906817043103
1,5,710,2,2,False,,,31.58063,30.0,2363.4949999977835,-1.5806299999999993,False,0,0,17,4,2,0,7.0,0.9169932084886164,48.940838660086015,44.636415557812505,-2.4973453204971463,0.0006099243486682766
1,2,550,3,2,False,,,50.0,47.0,2237.1550000389107,-3.0,False,0,0,18,4,2,0,7.0,0.9169932084886164,48.940838660086015,44.636415557812505,-1.9408386600860155,0.0001523564098917535
1,5,302,5,1,False,,,93.24415,83.0,1861.54000001261,-10.244150000000005,False,0,0,19,4,2,0,7.0,0.9169932084886164,48.940838660086015,44.636415557812505,-4.546118740767071,0.002027292334369836
1,7,710,2,0,False,,,31.58063,27.0,1554.550000000745,-4.580629999999999,False,0,0,20,4,2,0,7.0,0.9169932084886164,48.940838660086015,44.636415557812505,-5.497345320497146,0.0026976327357094293
1,2,302,5,2,False,,,93.24415,73.0,1002.985000028275,-20.244150000000005,False,0,0,21,4,2,0,7.0,0.9169932084886164,48.940838660086015,44.636415557812505,-14.54611874076707,0.03631202827420446
1,6,390,4,1,False,,,74.79787,87.0,1096.5950000099838,12.202129999999997,False,0,0,22,4,2,0,7.0,0.9169932084886164,48.940838660086015,44.636415557812505,15.921396509151009,0.02974321662016916
1,3,599,3,2,False,,,43.84378,50.0,891.2600000039674,6.156219999999998,False,0,0,23,4,2,0,7.0,0.9169932084886164,48.940838660086015,44.636415557812505,6.554992526255049,0.002584361114574874
1,6,329,5,0,False,,,87.0672,50.0,6859.735000005458,-37.0672,False,0,0,24,4,2,0,7.0,0.9169932084886164,48.940838660086015,44.636415557812505,-32.03177906322415,0.1591489023255477
1,5,425,4,1,False,,,68.59844,67.0,2160.6899999896996,-1.5984399999999965,False,0,0,25,4,2,0,7.0,0.9169932084886164,48.940838660086015,44.636415557812505,1.455808417938286,0.00041392245235902995
1,6,550,3,2,False,,,50.0,50.0,754.3799999984913,0.0,False,0,0,26,4,2,0,7.0,0.9169932084886164,48.940838660086015,44.636415557812505,1.0591613399139845,9.848767259637384e-05
1,4,918,1,0,False,,,13.04687,14.0,2016.364999988582,0.9531299999999998,False,0,0,27,4,2,0,7.0,0.9169932084886164,48.940838660086015,44.636415557812505,-1.951736224535951,0.0012077957745962526
1,3,425,4,2,False,,,68.59844,58.0,2534.990000014659,-10.598439999999997,False,0,0,28,4,2,0,7.0,0.9169932084886164,48.940838660086015,44.636415557812505,-7.544191582061714,0.0037753337972053157
1,4,504,3,0,False,,,56.30039,50.0,642.5000000162981,-6.30039,False,0,0,29,4,2,0,7.0,0.9169932084886164,48.940838660086015,44.636415557812505,-4.565378974583766,0.0009857194830872745
1,3,1000,1,2,False,,,6.87518,20.0,1952.9900000197813,13.12482,False,0,0,30,4,2,0,7.0,0.9169932084886164,48.940838660086015,44.636415557812505,9.557912470960849,0.015910884146134542
1,4,652,2,1,False,,,37.72798,37.0,2331.145000003744,-0.7279800000000023,False,0,1,31,4,2,0,7.0,0.9169932084886164,48.940838660086015,44.636415557812505,-0.9852613894534414,7.278945677459636e-05
1,7,918,1,0,False,,,13.04687,13.0,1418.2350000482984,-0.04687000000000019,False,0,1,32,4,2,0,7.0,0.9169932084886164,48.940838660086015,44.636415557812505,-2.951736224535951,0.00227849884405661
1,6,652,2,1,False,,,37.72798,36.0,1896.805000025779,-1.7279800000000023,False,0,1,33,4,2,0,7.0,0.9169932084886164,48.940838660086015,44.636415557812505,-1.9852613894534414,0.00027989353509207734
1,3,918,1,0,False,,,13.04687,22.0,2235.3499999735504,8.95313,False,0,1,34,4,2,0,7.0,0.9169932084886164,48.940838660086015,44.636415557812505,6.048263775464049,0.00477326005899763
1,7,652,2,2,False,,,37.72798,38.0,2741.5000000037253,0.2720199999999977,False,0,1,35,4,2,0,7.0,0.9169932084886164,48.940838660086015,44.636415557812505,0.014738610546558562,1.1110788605683773e-07
1,4,329,5,2,False,,,87.0672,93.0,2026.045000005979,5.9328,False,0,1,36,4,2,0,7.0,0.9169932084886164,48.940838660086015,44.636415557812505,10.96822093677585,0.02527298058442688
1,3,774,2,1,False,,,25.3549,29.0,3797.3149999743327,3.6450999999999993,False,0,1,37,4,2,0,7.0,0.9169932084886164,48.940838660086015,44.636415557812505,2.0605375081520556,0.0002908891048454309
1,7,550,3,2,False,,,50.0,41.0,8407.944999984466,-9.0,False,0,1,38,4,2,0,7.0,0.9169932084886164,48.940838660086015,44.636415557812505,-7.9408386600860155,0.003235108331965589
1,2,652,2,0,False,,,37.72798,31.0,20187.56500002928,-6.727980000000002,False,0,1,39,4,2,0,7.0,0.9169932084886164,48.940838660086015,44.636415557812505,-6.985261389453441,0.0033317998681136047
1,4,550,3,2,False,,,50.0,37.0,7032.250000047497,-13.0,False,0,1,40,4,2,0,7.0,0.9169932084886164,48.940838660086015,44.636415557812505,-11.940838660086015,0.007493990685557832
1,2,918,1,2,False,,,13.04687,12.0,2052.235000010114,-1.0468700000000002,False,0,1,41,4,2,0,7.0,0.9169932084886164,48.940838660086015,44.636415557812505,-3.951736224535951,0.003686176603519307
1,5,504,3,0,False,,,56.30039,71.0,1993.8550000078976,14.69961,False,0,1,42,4,2,0,7.0,0.9169932084886164,48.940838660086015,44.636415557812505,16.434621025416234,0.016582398948387173
1,2,358,5,1,False,,,80.9736,84.0,1746.8099999823608,3.0263999999999953,False,0,1,43,4,2,0,7.0,0.9169932084886164,48.940838660086015,44.636415557812505,7.408150331160144,0.009675864645663423
1,6,843,1,2,False,,,19.19495,24.0,2805.2199999801815,4.805050000000001,False,0,1,44,4,2,0,7.0,0.9169932084886164,48.940838660086015,44.636415557812505,2.5597021607948065,0.0005321546789427726
1,2,599,3,0,False,,,43.84378,38.0,1554.6999999787658,-5.843780000000002,False,0,1,45,4,2,0,7.0,0.9169932084886164,48.940838660086015,44.636415557812505,-5.445007473744951,0.0016550897192335258
1,5,463,4,0,False,,,62.42097,73.0,1398.494999972172,10.579030000000003,False,0,1,46,4,2,0,7.0,0.9169932084886164,48.940838660086015,44.636415557812505,12.970608646205982,0.012410130952464897
1,6,504,3,0,False,,,56.30039,55.0,2763.2050000247546,-1.3003900000000002,False,0,1,47,4,2,0,7.0,0.9169932084886164,48.940838660086015,44.636415557812505,0.4346210254162344,4.541771588029077e-05
1,2,463,4,0,False,,,62.42097,67.0,2441.110000014305,4.579030000000003,False,0,1,48,4,2,0,7.0,0.9169932084886164,48.940838660086015,44.636415557812505,6.9706086462059815,0.0038690892627268564
1,3,504,3,1,False,,,56.30039,67.0,2254.060000006575,10.69961,False,0,1,49,4,2,0,7.0,0.9169932084886164,48.940838660086015,44.636415557812505,12.434621025416234,0.009655875513464847
1,6,463,4,2,False,,,62.42097,73.0,2813.2499999483116,10.579030000000003,False,0,1,50,4,2,0,7.0,0.9169932084886164,48.940838660086015,44.636415557812505,12.970608646205982,0.012410130952464897
1,7,302,5,2,False,,,93.24415,86.0,1139.2699999851175,-7.244150000000005,False,0,1,51,4,2,0,7.0,0.9169932084886164,48.940838660086015,44.636415557812505,-1.5461187407670707,1.86583703861417e-06
1,4,425,4,0,False,,,68.59844,68.0,1284.7749999491498,-0.5984399999999965,False,0,1,52,4,2,0,7.0,0.9169932084886164,48.940838660086015,44.636415557812505,2.455808417938286,0.0008662857083300343
1,5,358,5,0,False,,,80.9736,95.0,1345.0549999834038,14.026399999999995,False,0,1,53,4,2,0,7.0,0.9169932084886164,48.940838660086015,44.636415557812505,18.408150331160144,0.050740896605094205
1,7,390,4,2,False,,,74.79787,82.0,1658.4949999814853,7.202129999999997,False,0,1,54,4,2,0,7.0,0.9169932084886164,48.940838660086015,44.636415557812505,10.921396509151009,0.014727124106765393
1,6,302,5,1,False,,,93.24415,75.0,1925.8000000263564,-18.244150000000005,False,0,1,55,4,2,0,7.0,0.9169932084886164,48.940838660086015,44.636415557812505,-12.54611874076707,0.026066365482291198
1,4,843,1,1,False,,,19.19495,13.0,1761.7500000051223,-6.194949999999999,False,0,1,56,4,2,0,7.0,0.9169932084886164,48.940838660086015,44.636415557812505,-8.440297839205193,0.010762933335157819
1,3,358,5,1,False,,,80.9736,77.0,7120.2850000117905,-3.9736000000000047,False,0,1,57,4,2,0,7.0,0.9169932084886164,48.940838660086015,44.636415557812505,0.40815033116014376,0.00031035455282123306
1,5,774,2,1,False,,,25.3549,23.0,3611.6349999792874,-2.3549000000000007,False,0,1,58,4,2,0,7.0,0.9169932084886164,48.940838660086015,44.636415557812505,-3.9394624918479444,0.0019584000424086303
1,3,390,4,1,False,,,74.79787,77.0,2152.529999963008,2.202129999999997,False,0,1,59,4,2,0,7.0,0.9169932084886164,48.940838660086015,44.636415557812505,5.921396509151009,0.004934852857695357
1,5,918,1,2,False,,,13.04687,21.0,2695.9849999984726,7.95313,False,0,1,60,4,2,0,7.0,0.9169932084886164,48.940838660086015,44.636415557812505,5.048263775464049,0.003148165608439269
1,5,390,4,2,False,,,74.79787,72.0,2588.5049999924377,-2.797870000000003,False,0,2,61,4,2,0,7.0,0.9169932084886164,48.940838660086015,44.636415557812505,0.921396509151009,0.0003664028729590465
1,4,1000,1,2,False,,,6.87518,17.0,1503.8349999813363,10.12482,False,0,2,62,4,2,0,7.0,0.9169932084886164,48.940838660086015,44.636415557812505,6.557912470960849,0.006800457575739902
1,7,358,5,0,False,,,80.9736,71.0,2640.475000021979,-9.973600000000005,False,0,2,63,4,2,0,7.0,0.9169932084886164,48.940838660086015,44.636415557812505,-5.591849668839856,0.0026622115513018135
1,6,774,2,0,False,,,25.3549,27.0,1985.4899999918416,1.6450999999999993,False,0,2,64,4,2,0,7.0,0.9169932084886164,48.940838660086015,44.636415557812505,0.06053750815205561,1.1430870380636885e-05
1,3,843,1,1,False,,,19.19495,17.0,2874.6549999923445,-2.1949499999999986,False,0,2,65,4,2,0,7.0,0.9169932084886164,48.940838660086015,44.636415557812505,-4.4402978392051935,0.003321300668825341
1,6,358,5,2,False,,,80.9736,74.0,2703.159999975469,-6.973600000000005,False,0,2,66,4,2,0,7.0,0.9169932084886164,48.940838660086015,44.636415557812505,-2.5918496688398562,0.0002886556969007997
1,7,463,4,0,False,,,62.42097,63.0,1757.030000037048,0.579030000000003,False,0,2,67,4,2,0,7.0,0.9169932084886164,48.940838660086015,44.636415557812505,2.9706086462059815,0.0008645262916532404
1,6,918,1,0,False,,,13.04687,7.0,1159.5150000066496,-6.04687,False,0,2,68,4,2,0,7.0,0.9169932084886164,48.940838660086015,44.636415557812505,-8.951736224535951,0.015779185750867897
1,2,774,2,1,False,,,25.3549,28.0,1866.6200000443496,2.6450999999999993,False,0,2,69,4,2,0,7.0,0.9169932084886164,48.940838660086015,44.636415557812505,1.0605375081520556,4.6748085906468036e-05
1,3,550,3,0,False,,,50.0,40.0,2752.295000012964,-10.0,False,0,2,70,4,2,0,7.0,0.9169932084886164,48.940838660086015,44.636415557812505,-8.940838660086015,0.004134550339947924
1,2,390,4,1,False,,,74.79787,26.0,28770.674999977928,-48.79787,False,0,2,71,4,2,0,7.0,0.9169932084886164,48.940838660086015,44.636415557812505,-45.07860349084899,0.20343835673592345
1,7,774,2,1,False,,,25.3549,31.0,3879.8599999863654,5.645099999999999,False,0,2,72,4,2,0,7.0,0.9169932084886164,48.940838660086015,44.636415557812505,4.060537508152056,0.001405642552962752
1,2,1000,1,1,False,,,6.87518,26.0,3220.8100000279956,19.12482,False,0,2,73,4,2,0,7.0,0.9169932084886164,48.940838660086015,44.636415557812505,15.557912470960849,0.04557596722127956
1,4,302,5,1,False,,,93.24415,74.0,2599.114999989979,-19.244150000000005,False,0,2,74,4,2,0,7.0,0.9169932084886164,48.940838660086015,44.636415557812505,-13.54611874076707,0.030977402153001182
1,2,504,3,1,False,,,56.30039,56.0,4389.474999974482,-0.30039000000000016,False,0,2,75,4,2,0,7.0,0.9169932084886164,48.940838660086015,44.636415557812505,1.4346210254162344,0.0002063921282883445
1,4,390,4,2,False,,,74.79787,73.0,1533.9599999715574,-1.7978700000000032,False,0,2,76,4,2,0,7.0,0.9169932084886164,48.940838660086015,44.636415557812505,1.921396509151009,0.0008621871687596104
1,2,329,5,0,False,,,87.0672,80.0,6305.27000001166,-7.0672,False,0,2,77,4,2,0,7.0,0.9169932084886164,48.940838660086015,44.636415557812505,-2.0317790632241497,9.400332011712235e-05
1,4,599,3,1,False,,,43.84378,35.0,2462.0750000467524,-8.843780000000002,False,0,2,78,4,2,0,7.0,0.9169932084886164,48.940838660086015,44.636415557812505,-8.445007473744951,0.004040209884945478
1,5,652,2,0,False,,,37.72798,43.0,3363.825000007637,5.272019999999998,False,0,2,79,4,2,0,7.0,0.9169932084886164,48.940838660086015,44.636415557812505,5.014738610546559,0.0016531053048774815
1,6,599,3,1,False,,,43.84378,48.0,1941.5850000223145,4.156219999999998,False,0,2,80,4,2,0,7.0,0.9169932084886164,48.940838660086015,44.636415557812505,4.554992526255049,0.0012661767644414092
1,3,463,4,0,False,,,62.42097,60.0,6818.169999984093,-2.420969999999997,False,0,2,81,4,2,0,7.0,0.9169932084886164,48.940838660086015,44.636415557812505,-0.02939135379401847,2.307309494269316e-05
1,5,599,3,2,False,,,43.84378,61.0,4906.994999968447,17.156219999999998,False,0,2,82,4,2,0,7.0,0.9169932084886164,48.940838660086015,44.636415557812505,17.55499252625505,0.018152011397648094
1,7,843,1,2,False,,,19.19495,27.0,1715.3849999886006,7.805050000000001,False,0,2,83,4,2,0,7.0,0.9169932084886164,48.940838660086015,44.636415557812505,5.5597021607948065,0.0033239665960837256
1,3,329,5,2,False,,,87.0672,82.0,5829.909999971278,-5.0672,False,0,2,84,4,2,0,7.0,0.9169932084886164,48.940838660086015,44.636415557812505,-0.031779063224149695,0.00026418431188346685
1,4,774,2,2,False,,,25.3549,25.0,4770.250000001397,-0.35490000000000066,False,0,2,85,4,2,0,7.0,0.9169932084886164,48.940838660086015,44.636415557812505,-1.9394624918479444,0.0005672678495683699
1,5,329,5,2,False,,,87.0672,100.0,3525.5949999555014,12.9328,False,0,2,86,4,2,0,7.0,0.9169932084886164,48.940838660086015,44.636415557812505,17.96822093677585,0.062398668443502725
1,7,504,3,0,False,,,56.30039,35.0,8772.919999959413,-21.30039,False,0,2,87,4,2,0,7.0,0.9169932084886164,48.940838660086015,44.636415557812505,-19.565378974583766,0.021258363077180754
1,5,843,1,1,False,,,19.19495,27.0,2146.1550000240095,7.805050000000001,False,0,2,88,4,2,0,7.0,0.9169932084886164,48.940838660086015,44.636415557812505,5.5597021607948065,0.0033239665960837256
1,3,652,2,2,False,,,37.72798,29.0,2757.709999976214,-8.727980000000002,False,0,2,89,4,2,0,7.0,0.9169932084886164,48.940838660086015,44.636415557812505,-8.985261389453441,0.005493542507324805
1,6,425,4,0,False,,,68.59844,76.0,2737.2549999854527,7.4015600000000035,False,0,2,90,4,2,0,7.0,0.9169932084886164,48.940838660086015,44.636415557812505,10.455808417938286,0.010431336274966337
2,4,550,3,1,True,,,50.0,43.0,2671.1750000249594,-7.0,False,1,0,1,4,2,0,24.0,0.9353814937677025,48.76459200018065,55.57450017310499,-5.764592000180649,0.0015230585082861019
2,7,918,1,2,True,,,13.04687,24.0,2740.6999999657273,10.95313,False,1,0,2,4,2,0,24.0,0.9353814937677025,48.76459200018065,55.57450017310499,16.30843897921151,0.03332652439052735
2,5,504,3,1,True,,,56.30039,50.0,885.355000034906,-6.30039,False,1,0,3,4,2,0,24.0,0.9353814937677025,48.76459200018065,55.57450017310499,-5.76741722204104,0.0015085091993802728
2,3,463,4,2,True,,,62.42097,72.0,2873.265000001993,9.579030000000003,False,1,0,4,4,2,0,24.0,0.9353814937677025,48.76459200018065,55.57450017310499,9.429622613718799,0.005510590735607698
2,2,599,3,1,True,,,43.84378,29.0,4143.784999963827,-14.843780000000002,False,1,0,5,4,2,0,24.0,0.9353814937677025,48.76459200018065,55.57450017310499,-12.922015879320746,0.008386104553247942
2,3,329,5,0,True,,,87.0672,100.0,3032.069999957457,12.9328,False,1,0,6,4,2,0,24.0,0.9353814937677025,48.76459200018065,55.57450017310499,10.035583816344257,0.017749986834634683
2,7,550,3,1,True,,,50.0,24.0,2155.8899999945424,-26.0,False,1,0,7,4,2,0,24.0,0.9353814937677025,48.76459200018065,55.57450017310499,-24.76459200018065,0.02848597157220233
2,6,329,5,0,True,,,87.0672,100.0,2344.570000015665,12.9328,False,1,0,8,4,2,0,24.0,0.9353814937677025,48.76459200018065,55.57450017310499,10.035583816344257,0.017749986834634683
2,5,843,1,2,True,,,19.19495,0.0,2087.34500000719,-19.19495,False,1,0,9,4,2,0,24.0,0.9353814937677025,48.76459200018065,55.57450017310499,-14.525086172678654,0.026573732473987595
2,4,329,5,2,True,"[74, 74]","[441, 969]",87.0672,100.0,2753.3149999799207,12.9328,True,2,0,10,4,2,0,24.0,0.9353814937677025,48.76459200018065,55.57450017310499,10.035583816344257,0.017749986834634683
2,6,843,1,1,True,,,19.19495,0.0,2058.08500002604,-19.19495,False,1,0,11,4,2,0,24.0,0.9353814937677025,48.76459200018065,55.57450017310499,-14.525086172678654,0.026573732473987595
2,2,774,2,1,True,,,25.3549,0.0,2111.3900000345893,-25.3549,False,1,0,12,4,2,0,24.0,0.9353814937677025,48.76459200018065,55.57450017310499,-21.371812620603244,0.04292158884113958
2,6,390,4,0,True,,,74.79787,79.0,3007.5749999959953,4.202129999999997,False,1,0,13,4,2,0,24.0,0.9353814937677025,48.76459200018065,55.57450017310499,2.6728181268504585,0.0010477771939902101
2,7,358,5,2,True,,,80.9736,67.0,2635.915000049863,-13.973600000000005,False,1,0,14,4,2,0,24.0,0.9353814937677025,48.76459200018065,55.57450017310499,-16.191440502435853,0.02617257180906253
2,4,425,4,1,True,,,68.59844,50.0,1028.5600000061095,-18.598439999999997,False,1,0,15,4,2,0,24.0,0.9353814937677025,48.76459200018065,55.57450017310499,-19.436570883461798,0.024832437375787754
2,6,550,3,0,True,,,50.0,62.0,4666.885000013281,12.0,False,1,0,16,4,2,0,24.0,0.9353814937677025,48.76459200018065,55.57450017310499,13.235407999819351,0.008231045949751603
2,5,425,4,1,True,,,68.59844,81.0,2624.980000022333,12.401560000000003,False,1,0,17,4,2,0,24.0,0.9353814937677025,48.76459200018065,55.57450017310499,11.563429116538202,0.010324692284113349
2,7,774,2,2,True,,,25.3549,14.0,1855.7850000215694,-11.3549,False,1,0,18,4,2,0,24.0,0.9353814937677025,48.76459200018065,55.57450017310499,-7.371812620603244,0.0057089519836326695
2,2,329,5,2,True,,,87.0672,100.0,3072.8899999521673,12.9328,False,1,0,19,4,2,0,24.0,0.9353814937677025,48.76459200018065,55.57450017310499,10.035583816344257,0.017749986834634683
2,7,425,4,0,True,,,68.59844,59.0,3219.249999965541,-9.598439999999997,False,1,0,20,4,2,0,24.0,0.9353814937677025,48.76459200018065,55.57450017310499,-10.436570883461798,0.006778781533037036
2,6,652,2,0,True,,,37.72798,21.0,2019.7749999933876,-16.727980000000002,False,1,0,21,4,2,0,24.0,0.9353814937677025,48.76459200018065,55.57450017310499,-14.1243674589726,0.011847908838110207
2,3,550,3,0,True,,,50.0,50.0,784.0399999986403,0.0,False,1,0,22,4,2,0,24.0,0.9353814937677025,48.76459200018065,55.57450017310499,1.2354079998193512,7.703221601152611e-05
2,5,358,5,2,True,,,80.9736,88.0,2224.6049999957904,7.026399999999995,False,1,0,23,4,2,0,24.0,0.9353814937677025,48.76459200018065,55.57450017310499,4.808559497564147,0.003733215378380446
2,3,652,2,1,True,,,37.72798,15.0,1579.4549999991432,-22.727980000000002,False,1,0,24,4,2,0,24.0,0.9353814937677025,48.76459200018065,55.57450017310499,-20.1243674589726,0.023748471684685753
2,4,918,1,0,True,,,13.04687,0.0,2003.9949999772944,-13.04687,False,1,0,25,4,2,0,24.0,0.9353814937677025,48.76459200018065,55.57450017310499,-7.691561020788489,0.010829343709753986
2,5,652,2,1,True,,,37.72798,21.0,2556.5000000060536,-16.727980000000002,False,1,0,26,4,2,0,24.0,0.9353814937677025,48.76459200018065,55.57450017310499,-14.1243674589726,0.011847908838110207
2,3,1000,1,2,True,,,6.87518,0.0,3870.890000020154,-6.87518,False,1,0,27,4,2,0,24.0,0.9353814937677025,48.76459200018065,55.57450017310499,-0.8317814315189713,0.0007414915302888046
2,2,463,4,1,True,,,62.42097,74.0,5073.4100000117905,11.579030000000003,False,1,0,28,4,2,0,24.0,0.9353814937677025,48.76459200018065,55.57450017310499,11.429622613718799,0.00797838089559696
2,4,774,2,0,True,,,25.3549,0.0,12793.769999989308,-25.3549,False,1,0,29,4,2,0,24.0,0.9353814937677025,48.76459200018065,55.57450017310499,-21.371812620603244,0.04292158884113958
2,2,843,1,2,True,,,19.19495,20.0,3605.2500000223517,0.8050500000000014,False,1,0,30,4,2,0,24.0,0.9353814937677025,48.76459200018065,55.57450017310499,5.4749138273213465,0.0024128214502272785
2,6,918,1,0,True,"[74, 74, 74, 74, 74, 74]","[348, 940, 1550, 2194, 2781, 3402]",13.04687,14.0,2340.1450000237674,0.9531299999999998,True,2,1,31,4,2,0,24.0,0.9353814937677025,48.76459200018065,55.57450017310499,6.308438979211511,0.0039854821405870215
2,4,599,3,0,True,"[74, 74, 74, 74]","[395, 952, 1498, 2038]",43.84378,32.0,3683.2500000018626,-11.843780000000002,True,2,1,32,4,2,0,24.0,0.9353814937677025,48.76459200018065,55.57450017310499,-9.922015879320746,0.0049737876050495195
2,3,918,1,1,True,"[74, 74, 74, 74, 74]","[279, 859, 1428, 1991, 3587]",13.04687,0.0,3346.1349999997765,-13.04687,True,2,1,33,4,2,0,24.0,0.9353814937677025,48.76459200018065,55.57450017310499,-7.691561020788489,0.010829343709753986
2,7,329,5,0,True,"[74, 74, 74]","[261, 766, 1289]",87.0672,86.0,3261.6300000227056,-1.0671999999999997,True,2,1,34,4,2,0,24.0,0.9353814937677025,48.76459200018065,55.57450017310499,-3.964416183655743,0.0011487514188751936
2,2,390,4,2,True,"[74, 74, 74]","[290, 801, 1347]",74.79787,78.0,2860.355000011623,3.202129999999997,True,2,1,35,4,2,0,24.0,0.9353814937677025,48.76459200018065,55.57450017310499,1.6728181268504585,0.0005274013876949526
2,7,710,2,1,True,"[74, 74, 74, 74, 74]","[360, 958, 1562, 2154, 2815]",31.58063,34.0,2633.434999966994,2.4193700000000007,True,2,1,36,4,2,0,24.0,0.9353814937677025,48.76459200018065,55.57450017310499,5.70835395722581,0.0019047404399862413
2,4,358,5,0,True,"[74, 74, 74]","[319, 842, 1382]",80.9736,86.0,2773.8249999820255,5.026399999999995,True,2,1,37,4,2,0,24.0,0.9353814937677025,48.76459200018065,55.57450017310499,2.808559497564147,0.001589890501315263
2,5,390,4,2,True,"[74, 74, 74]","[325, 853, 1422]",74.79787,96.0,2032.370000029914,21.202129999999997,True,2,1,38,4,2,0,24.0,0.9353814937677025,48.76459200018065,55.57450017310499,19.67281812685046,0.03695629401230964
2,7,599,3,0,True,"[74, 74, 74, 74]","[511, 1074, 1596, 2154]",43.84378,50.0,1205.3500000038184,6.156219999999998,True,2,1,39,4,2,0,24.0,0.9353814937677025,48.76459200018065,55.57450017310499,8.077984120679254,0.0031112371951747425
2,5,774,2,0,True,"[74, 74, 74, 74, 74, 74]","[302, 900, 1492, 2003, 2525, 3065]",25.3549,16.0,2730.7850000215694,-9.3549,True,2,1,40,4,2,0,24.0,0.9353814937677025,48.76459200018065,55.57450017310499,-5.371812620603244,0.0032211396775140228
2,3,425,4,1,True,"[74, 74, 74]","[337, 865, 1422]",68.59844,79.0,2450.124999973923,10.401560000000003,True,2,1,41,4,2,0,24.0,0.9353814937677025,48.76459200018065,55.57450017310499,9.563429116538202,0.007206027701006685
2,2,918,1,1,True,"[74, 74, 74, 74, 74, 74]","[418, 1010, 1654, 2223, 2839, 3471]",13.04687,16.0,2357.2949999943376,2.95313,True,2,1,42,4,2,0,24.0,0.9353814937677025,48.76459200018065,55.57450017310499,8.30843897921151,0.007571722937285398
2,3,774,2,0,True,"[74, 74, 74, 74, 74]","[528, 1051, 1643, 2223, 2879]",25.3549,28.0,5563.900000008289,2.6450999999999993,True,2,1,43,4,2,0,24.0,0.9353814937677025,48.76459200018065,55.57450017310499,6.628187379396756,0.003142728876809412
2,2,550,3,2,True,"[74, 74, 74, 74, 89]","[279, 853, 1451, 2055, 2241]",50.0,50.0,807.4199999682605,0.0,True,2,1,44,4,2,0,24.0,0.9353814937677025,48.76459200018065,55.57450017310499,1.2354079998193512,7.703221601152611e-05
2,3,358,5,1,True,"[74, 74, 74]","[174, 685, 1236]",80.9736,82.0,2282.0799999753945,1.0263999999999953,True,2,1,45,4,2,0,24.0,0.9353814937677025,48.76459200018065,55.57450017310499,-1.191440502435853,6.655342064084441e-06
2,2,710,2,0,True,"[74, 74, 74, 74, 74]","[302, 871, 1416, 1927, 2479]",31.58063,24.0,2722.509999992326,-7.580629999999999,True,2,1,46,4,2,0,24.0,0.9353814937677025,48.76459200018065,55.57450017310499,-4.29164604277419,0.0015922946529115338
2,3,504,3,2,True,"[74, 74, 74, 74]","[99, 615, 1091, 1602]",56.30039,61.0,4671.574999985751,4.69961,True,2,1,47,4,2,0,24.0,0.9353814937677025,48.76459200018065,55.57450017310499,5.23258277795896,0.0014707784816218616
2,6,358,5,2,True,"[74, 74, 74]","[180, 726, 1242]",80.9736,84.0,2327.6549999718554,3.0263999999999953,True,2,1,48,4,2,0,24.0,0.9353814937677025,48.76459200018065,55.57450017310499,0.808559497564147,0.0003477038225431423
2,4,710,2,2,True,"[74, 74, 74, 74, 74]","[313, 848, 1387, 1927, 2450]",31.58063,29.0,3182.3200000217184,-2.5806299999999993,True,2,1,49,4,2,0,24.0,0.9353814937677025,48.76459200018065,55.57450017310499,0.7083539572258104,3.4964609694785496e-06
2,6,599,3,2,True,"[74, 74, 74, 74]","[325, 871, 1416, 1968]",43.84378,36.0,2590.4350000200793,-7.843780000000002,True,2,1,50,4,2,0,24.0,0.9353814937677025,48.76459200018065,55.57450017310499,-5.922015879320746,0.001802650287400938
2,7,463,4,2,True,"[74, 74, 74, 74]","[75, 650, 1149, 1608]",62.42097,80.0,2494.795000005979,17.579030000000003,True,2,1,51,4,2,0,24.0,0.9353814937677025,48.76459200018065,55.57450017310499,17.4296226137188,0.018113679875276116
2,6,710,2,1,True,"[74, 74, 74, 74, 74, 74]","[215, 708, 1225, 1736, 2241, 2711]",31.58063,31.0,4404.52500001993,-0.5806299999999993,True,2,1,52,4,2,0,24.0,0.9353814937677025,48.76459200018065,55.57450017310499,2.7083539572258104,0.00034518899206112554
2,2,358,5,1,True,"[74, 74, 74]","[197, 714, 1219]",80.9736,73.0,1951.4450000133365,-7.973600000000005,True,2,1,53,4,2,0,24.0,0.9353814937677025,48.76459200018065,55.57450017310499,-10.191440502435853,0.009623522383784978
2,5,550,3,2,True,"[74, 74, 74, 74]","[337, 900, 1434, 2142]",50.0,50.0,1563.4900000295602,0.0,True,2,1,54,4,2,0,24.0,0.9353814937677025,48.76459200018065,55.57450017310499,1.2354079998193512,7.703221601152611e-05
2,6,425,4,1,True,"[74, 74, 74]","[383, 964, 1562]",68.59844,75.0,2624.9749999842606,6.4015600000000035,True,2,1,55,4,2,0,24.0,0.9353814937677025,48.76459200018065,55.57450017310499,5.563429116538202,0.00264648397096229
2,5,1000,1,1,True,"[74, 74, 74, 74, 74, 74, 74]","[313, 894, 1445, 1980, 2543, 3053, 3599]",6.87518,8.0,2246.0899999714456,1.1248199999999997,True,2,1,56,4,2,0,24.0,0.9353814937677025,48.76459200018065,55.57450017310499,7.168218568481029,0.006387361777580734
2,4,463,4,0,True,"[74, 74, 74]","[348, 894, 1445]",62.42097,50.0,851.555000001099,-12.420969999999997,True,2,1,57,4,2,0,24.0,0.9353814937677025,48.76459200018065,55.57450017310499,-12.570377386281201,0.008416112472550941
2,7,1000,1,1,True,"[74, 74, 74, 74, 74, 74, 74]","[325, 882, 1451, 1991, 2589, 3187, 3733]",6.87518,6.0,3118.5000000405125,-0.8751800000000003,True,2,1,58,4,2,0,24.0,0.9353814937677025,48.76459200018065,55.57450017310499,5.168218568481029,0.002823130941885955
2,5,302,5,1,True,,,93.24415,87.0,4359.140000015032,-6.244150000000005,False,1,1,59,4,2,0,24.0,0.9353814937677025,48.76459200018065,55.57450017310499,-9.83003627286854,0.013031572167970108
2,4,843,1,1,True,"[74, 74, 74, 74, 74, 74]","[319, 842, 1376, 1933, 2479, 3077]",19.19495,11.0,2072.020000021439,-8.194949999999999,True,2,1,60,4,2,0,24.0,0.9353814937677025,48.76459200018065,55.57450017310499,-3.5250861726786535,0.0021474205174819776
2,4,302,5,1,True,"[74, 74]","[308, 842]",93.24415,100.0,2788.6450000223704,6.755849999999995,True,2,2,61,4,2,0,24.0,0.9353814937677025,48.76459200018065,55.57450017310499,3.16996372713146,0.003589126481540864
2,7,843,1,0,True,"[74, 74, 74, 74]","[296, 836, 1405, 1997]",19.19495,26.0,2344.9149999651127,6.805050000000001,True,2,2,62,4,2,0,24.0,0.9353814937677025,48.76459200018065,55.57450017310499,11.474913827321346,0.012715038035788488
2,3,302,5,2,True,"[74, 74]","[406, 969]",93.24415,73.0,2262.230000051204,-20.244150000000005,True,2,2,63,4,2,0,24.0,0.9353814937677025,48.76459200018065,55.57450017310499,-23.83003627286854,0.09096905975530653
2,2,652,2,2,True,"[74, 74, 74, 74, 74]","[348, 882, 1440, 1997, 2554]",37.72798,50.0,1098.1299999984913,12.272019999999998,True,2,2,64,4,2,0,24.0,0.9353814937677025,48.76459200018065,55.57450017310499,14.8756325410274,0.012077015746622335
2,6,504,3,1,True,"[74, 74, 74, 74]","[331, 935, 1480, 2026]",56.30039,50.0,848.6350000021048,-6.30039,True,2,2,65,4,2,0,24.0,0.9353814937677025,48.76459200018065,55.57450017310499,-5.76741722204104,0.0015085091993802728
2,3,710,2,2,True,"[74, 74, 74, 74, 74]","[232, 789, 1329, 1933, 2444]",31.58063,31.0,2102.3200000054203,-0.5806299999999993,True,2,2,66,4,2,0,24.0,0.9353814937677025,48.76459200018065,55.57450017310499,2.7083539572258104,0.00034518899206112554
2,7,302,5,1,True,"[74, 74]","[261, 824]",93.24415,91.0,2684.3099999823608,-2.2441500000000048,True,2,2,67,4,2,0,24.0,0.9353814937677025,48.76459200018065,55.57450017310499,-5.83003627286854,0.0036720423668317025
2,2,1000,1,0,True,"[74, 74, 74, 74, 74, 74, 74]","[401, 998, 1585, 2136, 2682, 3262, 3907]",6.87518,16.0,2662.705000024289,9.12482,True,2,2,68,4,2,0,24.0,0.9353814937677025,48.76459200018065,55.57450017310499,15.168218568481029,0.03499604027950516
2,7,390,4,1,True,"[74, 74, 74]","[447, 1039, 1567]",74.79787,86.0,2924.3350000469945,11.202129999999997,True,2,2,69,4,2,0,24.0,0.9353814937677025,48.76459200018065,55.57450017310499,9.672818126850458,0.009642954159079247
2,5,329,5,0,True,"[74, 74]","[389, 964]",87.0672,77.0,2421.0750000202097,-10.0672,True,2,2,70,4,2,0,24.0,0.9353814937677025,48.76459200018065,55.57450017310499,-12.964416183655743,0.019973888410063437
2,6,774,2,2,True,"[74, 74, 74, 74, 74]","[447, 1010, 1573, 2194, 2757]",25.3549,23.0,2270.3350000083447,-2.3549000000000007,True,2,2,71,4,2,0,24.0,0.9353814937677025,48.76459200018065,55.57450017310499,1.6281873793967563,8.197024460148394e-05
2,5,599,3,0,True,"[74, 74, 74, 74]","[447, 1022, 1579, 2130]",43.84378,54.0,1918.9450000412762,10.156219999999998,True,2,2,72,4,2,0,24.0,0.9353814937677025,48.76459200018065,55.57450017310499,12.077984120679254,0.007030138460122644
2,4,390,4,2,True,"[74, 74, 74]","[383, 911, 1486]",74.79787,80.0,3079.9450000049546,5.202129999999997,True,2,2,73,4,2,0,24.0,0.9353814937677025,48.76459200018065,55.57450017310499,3.6728181268504585,0.0017450296546076907
2,3,843,1,0,True,"[74, 74, 74, 74, 74, 74]","[430, 981, 1527, 2032, 2635, 3164]",19.19495,20.0,2201.130000001285,0.8050500000000014,True,2,2,74,4,2,0,24.0,0.9353814937677025,48.76459200018065,55.57450017310499,5.4749138273213465,0.0024128214502272785
2,4,652,2,1,True,"[74, 74, 74, 74, 74]","[406, 998, 1509, 2026, 2566]",37.72798,22.0,2007.1849999949336,-15.727980000000002,True,2,2,75,4,2,0,24.0,0.9353814937677025,48.76459200018065,55.57450017310499,-13.1243674589726,0.01026274717287838
2,3,599,3,1,True,"[74, 74, 74, 74, 74]","[17, 575, 1097, 1672, 2188]",43.84378,50.0,1013.5000000009313,6.156219999999998,True,2,2,76,4,2,0,24.0,0.9353814937677025,48.76459200018065,55.57450017310499,8.077984120679254,0.0031112371951747425
2,4,1000,1,2,True,"[74, 74, 74, 74, 74, 74, 74]","[395, 981, 1550, 2084, 2635, 3193, 3767]",6.87518,20.0,2568.2149999774992,13.12482,True,2,2,77,4,2,0,24.0,0.9353814937677025,48.76459200018065,55.57450017310499,19.168218568481027,0.05791143262595456
2,2,425,4,0,True,"[74, 74, 74]","[389, 952, 1440]",68.59844,77.0,3313.0050000036135,8.401560000000003,True,2,2,78,4,2,0,24.0,0.9353814937677025,48.76459200018065,55.57450017310499,7.563429116538202,0.0046466249299563335
2,6,1000,1,2,True,"[74, 74, 74, 74, 74, 74, 74, 74]","[255, 784, 1312, 1834, 2357, 2862, 3419, 3947]",6.87518,15.0,1914.0999999945052,8.12482,True,2,2,79,4,2,0,24.0,0.9353814937677025,48.76459200018065,55.57450017310499,14.168218568481029,0.030164176890339397
2,4,504,3,2,True,"[74, 74, 74, 74]","[99, 627, 1120, 1614]",56.30039,50.0,859.1299999970943,-6.30039,True,2,2,80,4,2,0,24.0,0.9353814937677025,48.76459200018065,55.57450017310499,-5.76741722204104,0.0015085091993802728
2,3,390,4,0,True,"[74, 74, 74]","[337, 842, 1364]",74.79787,84.0,2770.58999997098,9.202129999999997,True,2,2,81,4,2,0,24.0,0.9353814937677025,48.76459200018065,55.57450017310499,7.6728181268504585,0.0063028060402998375
2,7,504,3,2,True,"[74, 74, 74, 74]","[255, 789, 1277, 1829]",56.30039,69.0,2953.6100000259466,12.69961,True,2,2,82,4,2,0,24.0,0.9353814937677025,48.76459200018065,55.57450017310499,13.23258277795896,0.008928190340859692
2,5,918,1,0,True,"[74, 74, 74, 74, 74, 74]","[302, 842, 1387, 1910, 2415, 3419]",13.04687,15.0,2089.0200000139885,1.9531299999999998,True,2,2,83,4,2,0,24.0,0.9353814937677025,48.76459200018065,55.57450017310499,7.308438979211511,0.005635979560605604
2,6,302,5,1,True,"[74, 74]","[244, 784]",93.24415,88.0,2715.864999976475,-5.244150000000005,True,2,2,84,4,2,0,24.0,0.9353814937677025,48.76459200018065,55.57450017310499,-8.83003627286854,0.010153842892883699
2,5,710,2,2,True,"[74, 74, 74, 74, 74]","[273, 830, 1353, 1881, 2403]",31.58063,24.0,2253.480000013951,-7.580629999999999,True,2,2,85,4,2,0,24.0,0.9353814937677025,48.76459200018065,55.57450017310499,-4.29164604277419,0.0015922946529115338
2,2,504,3,0,True,"[74, 74, 74, 74]","[163, 708, 1248, 1811]",56.30039,50.0,1053.7550000008196,-6.30039,True,2,2,86,4,2,0,24.0,0.9353814937677025,48.76459200018065,55.57450017310499,-5.76741722204104,0.0015085091993802728
2,5,463,4,0,True,"[74, 74, 74]","[244, 795, 1329]",62.42097,76.0,2443.615000054706,13.579030000000003,True,2,2,87,4,2,0,24.0,0.9353814937677025,48.76459200018065,55.57450017310499,13.429622613718799,0.010901492472204781
2,2,302,5,0,True,"[74, 74]","[435, 975]",93.24415,80.0,2612.444999977015,-13.244150000000005,True,2,2,88,4,2,0,24.0,0.9353814937677025,48.76459200018065,55.57450017310499,-16.83003627286854,0.04321548448987545
2,6,463,4,2,True,"[74, 74, 74, 74]","[174, 755, 1283, 1811]",62.42097,77.0,3581.594999996014,14.579030000000003,True,2,2,89,4,2,0,24.0,0.9353814937677025,48.76459200018065,55.57450017310499,14.429622613718799,0.012533793791740654
2,7,652,2,0,True,"[74, 74, 74, 74, 74]","[296, 853, 1393, 1933, 2490]",37.72798,22.0,2292.53500001505,-15.727980000000002,True,2,2,90,4,2,0,24.0,0.9353814937677025,48.76459200018065,55.57450017310499,-13.1243674589726,0.01026274717287838
4,2,774,2,0,True,"[74, 74, 74, 74]","[459, 911, 1707, 2403]",25.3549,24.0,16617.579999998212,-1.3549000000000007,True,2,0,1,0,2,4,12.0,0.9338137988031935,51.68528360745418,55.40187053045635,-0.37759371497463334,0.0001766188436947824
4,6,358,5,0,True,"[74, 74, 74]","[464, 848, 1225]",80.9736,76.0,2349.3999999992084,-4.973600000000005,True,2,0,2,0,2,4,12.0,0.9338137988031935,51.68528360745418,55.40187053045635,-10.005192874341517,0.009059047642428457
4,4,843,1,1,True,"[74, 74, 74, 74]","[424, 749, 1858, 2630]",19.19495,6.0,3091.1699999996927,-13.194949999999999,True,2,0,3,0,2,4,12.0,0.9338137988031935,51.68528360745418,55.40187053045635,-11.552135077580715,0.018388107820930314
4,3,504,3,0,True,"[74, 74, 74, 74]","[354, 807, 1289, 1718]",56.30039,50.0,1733.6149999974295,-6.30039,True,2,0,4,0,2,4,12.0,0.9338137988031935,51.68528360745418,55.40187053045635,-8.666356133171284,0.003592051344617278
4,6,843,1,1,True,"[74, 74, 74, 74]","[418, 906, 1916, 2769]",19.19495,29.0,4340.839999997173,9.805050000000001,True,2,0,5,0,2,4,12.0,0.9338137988031935,51.68528360745418,55.40187053045635,11.447864922419285,0.011597246562213623
4,2,425,4,0,True,"[74, 74, 74, 74]","[441, 848, 1144, 1503]",68.59844,61.0,4026.9200000038836,-7.5984399999999965,True,2,0,6,0,2,4,12.0,0.9338137988031935,51.68528360745418,55.40187053045635,-11.293049653618567,0.008015348653338401
4,7,710,2,2,True,"[74, 74, 74, 74]","[389, 819, 1567, 2229]",31.58063,34.0,3469.909999999916,2.4193700000000007,True,2,0,7,0,2,4,12.0,0.9338137988031935,51.68528360745418,55.40187053045635,2.7240677637016866,0.000254315481449509
4,3,463,4,2,True,"[74, 74, 74, 74]","[377, 813, 1178, 1625]",62.42097,44.0,7870.610000005341,-18.420969999999997,True,2,0,8,0,2,4,12.0,0.9338137988031935,51.68528360745418,55.40187053045635,-21.4481844369638,0.02524973818651526
4,7,329,5,0,True,"[74, 74, 74, 74]","[389, 789, 1033, 1335]",87.0672,81.0,3507.4900000035996,-6.0672,True,2,0,9,0,2,4,12.0,0.9338137988031935,51.68528360745418,55.40187053045635,-11.757129835143317,0.015682994342782895
4,6,463,4,1,True,"[74, 74, 74]","[621, 1138, 1521]",62.42097,70.0,2868.2650000046706,7.579030000000003,True,2,0,10,0,2,4,12.0,0.9338137988031935,51.68528360745418,55.40187053045635,4.5518155630362,0.0013480404182420833
4,2,843,1,1,True,"[74, 74, 74, 74]","[290, 691, 1892, 2601]",19.19495,13.0,3038.5099999986123,-6.194949999999999,True,2,0,11,0,2,4,12.0,0.9338137988031935,51.68528360745418,55.40187053045635,-4.552135077580715,0.0037892617261805817
4,3,329,5,2,True,"[74, 74, 74, 74]","[418, 772, 1022, 1295]",87.0672,84.0,4585.034999996424,-3.0671999999999997,True,2,0,12,0,2,4,12.0,0.9338137988031935,51.68528360745418,55.40187053045635,-8.757129835143317,0.008013295860338226
4,5,463,4,2,True,"[74, 74, 74, 74]","[435, 766, 1115, 1562]",62.42097,55.0,8764.79500000272,-7.420969999999997,True,2,0,13,0,2,4,12.0,0.9338137988031935,51.68528360745418,55.40187053045635,-10.4481844369638,0.005797373167885558
4,6,504,3,1,True,"[74, 74, 74, 74]","[430, 853, 1283, 1788]",56.30039,50.0,3618.255000001169,-6.30039,True,2,0,14,0,2,4,12.0,0.9338137988031935,51.68528360745418,55.40187053045635,-8.666356133171284,0.003592051344617278
4,5,329,5,0,True,"[74, 74, 74]","[441, 819, 1167]",87.0672,84.0,3502.2000000025146,-3.0671999999999997,True,2,0,15,0,2,4,12.0,0.9338137988031935,51.68528360745418,55.40187053045635,-8.757129835143317,0.008013295860338226
4,4,774,2,1,True,"[74, 74, 74, 74, 74]","[435, 801, 1649, 2334, 3065]",25.3549,12.0,3333.5349999980535,-13.3549,True,2,0,16,0,2,4,12.0,0.9338137988031935,51.68528360745418,55.40187053045635,-12.377593714974633,0.015825340546295828
4,5,550,3,1,True,"[74, 74, 74, 74]","[406, 813, 1271, 1759]",50.0,54.0,4094.3850000039674,4.0,True,2,0,17,0,2,4,12.0,0.9338137988031935,51.68528360745418,55.40187053045635,2.3147163925458187,0.00022132922791636426
4,3,710,2,1,True,"[74, 74, 74, 74]","[389, 819, 1538, 2247]",31.58063,7.0,5067.065000002971,-24.58063,True,2,0,18,0,2,4,12.0,0.9338137988031935,51.68528360745418,55.40187053045635,-24.275932236298313,0.043688211628152666
4,4,463,4,1,True,"[74, 74, 74, 74]","[406, 848, 1184, 1556]",62.42097,87.0,2318.619999998249,24.579030000000003,True,2,0,19,0,2,4,12.0,0.9338137988031935,51.68528360745418,55.40187053045635,21.5518155630362,0.0270995172362806
4,5,652,2,1,True,"[74, 74, 74, 74]","[453, 824, 1533, 2142]",37.72798,36.0,2878.4250000026077,-1.7279800000000023,True,2,0,20,0,2,4,12.0,0.9338137988031935,51.68528360745418,55.40187053045635,-2.0874293454364334,0.00040359354480070514
4,4,504,3,0,True,"[74, 74, 74, 74]","[424, 877, 1254, 1707]",56.30039,64.0,2399.7000000016997,7.69961,True,2,0,21,0,2,4,12.0,0.9338137988031935,51.68528360745418,55.40187053045635,5.333643866828716,0.0014471820039103128
4,5,843,1,2,True,"[74, 74, 74, 74]","[383, 813, 1776, 2612]",19.19495,6.0,4158.02000000258,-13.194949999999999,True,2,0,22,0,2,4,12.0,0.9338137988031935,51.68528360745418,55.40187053045635,-11.552135077580715,0.018388107820930314
4,4,302,5,2,True,"[74, 74, 74, 74]","[348, 731, 987, 1196]",93.24415,97.0,3246.7000000033295,3.7558499999999952,True,2,0,23,0,2,4,12.0,0.9338137988031935,51.68528360745418,55.40187053045635,-2.6014234249927313,0.0002299662817475113
4,7,918,1,0,True,"[74, 74, 74, 74]","[447, 731, 2049, 2879]",13.04687,9.0,3587.5750000050757,-4.04687,True,2,0,24,0,2,4,12.0,0.9338137988031935,51.68528360745418,55.40187053045635,-1.7398367293743764,0.0014835486160313571
4,2,302,5,1,True,"[74, 74, 74, 74]","[424, 720, 969, 1167]",93.24415,93.0,2909.074999995879,-0.24415000000000475,True,2,0,25,0,2,4,12.0,0.9338137988031935,51.68528360745418,55.40187053045635,-6.601423424992731,0.0047029201723128074
4,7,463,4,2,True,"[74, 74, 74, 74]","[459, 772, 1109, 1602]",62.42097,58.0,3503.5550000029616,-4.420969999999997,True,2,0,26,0,2,4,12.0,0.9338137988031935,51.68528360745418,55.40187053045635,-7.4481844369638,0.0028696648134810543
4,3,918,1,2,True,"[74, 74, 74, 74, 74]","[464, 1068, 1974, 2856, 3680]",13.04687,2.0,3462.4599999950733,-11.04687,True,2,0,27,0,2,4,12.0,0.9338137988031935,51.68528360745418,55.40187053045635,-8.739836729374376,0.014856543954465467
4,7,504,3,2,True,"[74, 74, 74, 74]","[412, 842, 1265, 1759]",56.30039,62.0,6400.574999999604,5.69961,True,2,0,28,0,2,4,12.0,0.9338137988031935,51.68528360745418,55.40187053045635,3.333643866828716,0.0005781781558274004
4,6,652,2,1,True,"[74, 74, 74, 74, 74]","[418, 824, 1434, 2032, 2653]",37.72798,38.0,3618.494999995106,0.2720199999999977,True,2,0,29,0,2,4,12.0,0.9338137988031935,51.68528360745418,55.40187053045635,-0.08742934543643344,2.5450099626619324e-05
4,2,599,3,0,True,"[74, 74, 74, 74]","[424, 795, 1393, 1939]",43.84378,50.0,5110.849999997299,6.156219999999998,True,2,0,30,0,2,4,12.0,0.9338137988031935,51.68528360745418,55.40187053045635,5.136037594929427,0.00111819731073984
4,3,1000,1,0,True,"[74, 74, 74, 74]","[499, 906, 1950, 3175]",6.87518,14.0,2805.5400000012014,7.12482,True,2,1,31,0,2,4,12.0,0.9338137988031935,51.68528360745418,55.40187053045635,10.098634502726739,0.012519945165531465
4,5,358,5,2,True,"[74, 74, 74, 74]","[447, 801, 1051, 1283]",80.9736,94.0,2057.099999998114,13.026399999999995,True,2,1,32,0,2,4,12.0,0.9338137988031935,51.68528360745418,55.40187053045635,7.9948071256584825,0.009090116150007797
4,4,1000,1,2,True,"[74, 74, 74, 74]","[412, 766, 2090, 3007]",6.87518,5.0,2305.8099999979604,-1.8751800000000003,True,2,1,33,0,2,4,12.0,0.9338137988031935,51.68528360745418,55.40187053045635,1.0986345027267386,6.931507270023541e-05
4,3,774,2,0,True,"[74, 74, 74]","[743, 1637, 2485]",25.3549,36.0,4361.74000000034,10.6451,True,2,1,34,0,2,4,12.0,0.9338137988031935,51.68528360745418,55.40187053045635,11.622406285025367,0.009844450701961618
4,4,329,5,1,True,"[74, 74, 74, 74]","[441, 807, 1010, 1225]",87.0672,96.0,4952.5099999955855,8.9328,True,2,1,35,0,2,4,12.0,0.9338137988031935,51.68528360745418,55.40187053045635,3.242870164856683,0.0028453666437582518
4,5,1000,1,0,True,"[74, 74, 74, 74]","[493, 975, 2409, 3181]",6.87518,14.0,4168.050000000163,7.12482,True,2,1,36,0,2,4,12.0,0.9338137988031935,51.68528360745418,55.40187053045635,10.098634502726739,0.012519945165531465
4,2,358,5,2,True,"[74, 74, 74, 74]","[453, 842, 1062, 1283]",80.9736,93.0,2071.9850000024308,12.026399999999995,True,2,1,37,0,2,4,12.0,0.9338137988031935,51.68528360745418,55.40187053045635,6.9948071256584825,0.007183849637626209
4,7,550,3,1,True,"[74, 74, 74, 74]","[441, 923, 1405, 1921]",50.0,50.0,1092.250000001397,0.0,True,2,1,38,0,2,4,12.0,0.9338137988031935,51.68528360745418,55.40187053045635,-1.6852836074541813,0.00015288936398786382
4,2,1000,1,2,True,"[74, 74, 74, 74, 74]","[453, 795, 2142, 3117, 4040]",6.87518,10.0,4130.620000003604,3.1248199999999997,True,2,1,39,0,2,4,12.0,0.9338137988031935,51.68528360745418,55.40187053045635,6.098634502726739,0.0034178383702667577
4,7,652,2,1,True,"[74, 74, 74, 74]","[441, 1045, 1585, 2183]",37.72798,50.0,1652.5000000038417,12.272019999999998,True,2,1,40,0,2,4,12.0,0.9338137988031935,51.68528360745418,55.40187053045635,11.912570654563567,0.007263157830571275
4,6,302,5,2,True,"[74, 74, 74, 74]","[441, 749, 1016, 1236]",93.24415,78.0,2579.6599999957252,-15.244150000000005,True,2,1,41,0,2,4,12.0,0.9338137988031935,51.68528360745418,55.40187053045635,-21.60142342499273,0.07229502621911083
4,2,504,3,2,True,"[74, 74, 74, 74]","[406, 807, 1289, 1736]",56.30039,50.0,3058.8900000001304,-6.30039,True,2,1,42,0,2,4,12.0,0.9338137988031935,51.68528360745418,55.40187053045635,-8.666356133171284,0.003592051344617278
4,4,652,2,2,True,"[74, 74, 74, 74]","[464, 900, 1486, 2096]",37.72798,50.0,1646.4100000010803,12.272019999999998,True,2,1,43,0,2,4,12.0,0.9338137988031935,51.68528360745418,55.40187053045635,11.912570654563567,0.007263157830571275
4,2,463,4,2,True,"[74, 74, 74, 74]","[470, 842, 1126, 1596]",62.42097,84.0,3138.480000001611,21.579030000000003,True,2,1,44,0,2,4,12.0,0.9338137988031935,51.68528360745418,55.40187053045635,18.5518155630362,0.020177656869052023
4,6,774,2,0,True,"[74, 74, 74, 74]","[435, 882, 1614, 2403]",25.3549,28.0,2872.074999999255,2.6450999999999993,True,2,1,45,0,2,4,12.0,0.9338137988031935,51.68528360745418,55.40187053045635,3.6224062850253667,0.0005862790674650741
4,7,302,5,2,True,"[74, 74, 74, 74]","[476, 795, 1004, 1254]",93.24415,90.0,2789.9450000040233,-3.2441500000000048,True,2,1,46,0,2,4,12.0,0.9338137988031935,51.68528360745418,55.40187053045635,-9.601423424992731,0.011802158776555167
4,2,710,2,1,True,"[74, 74, 74, 74, 74]","[430, 848, 1544, 2218, 2850]",31.58063,15.0,1896.9800000048708,-16.58063,True,2,1,47,0,2,4,12.0,0.9338137988031935,51.68528360745418,55.40187053045635,-16.275932236298313,0.020266681869986772
4,3,599,3,2,True,"[74, 74, 74, 74]","[401, 842, 1376, 1904]",43.84378,42.0,5485.605000001611,-1.8437800000000024,True,2,1,48,0,2,4,12.0,0.9338137988031935,51.68528360745418,55.40187053045635,-2.8639624050705734,0.0005081927739762796
4,7,1000,1,1,True,"[74, 74, 74, 74, 74]","[453, 853, 2119, 3036, 3976]",6.87518,37.0,6953.545000003884,30.12482,True,2,1,49,0,2,4,12.0,0.9338137988031935,51.68528360745418,55.40187053045635,33.09863450272674,0.1756587799502017
4,6,599,3,2,True,"[74, 74, 74, 74]","[488, 1103, 1492, 2026]",43.84378,40.0,6119.599999997998,-3.8437800000000024,True,2,1,50,0,2,4,12.0,0.9338137988031935,51.68528360745418,55.40187053045635,-4.863962405070573,0.001335082342786746
4,7,425,4,0,True,"[74, 74, 74, 74]","[453, 848, 1103, 1480]",68.59844,93.0,4167.569999997737,24.401560000000003,True,2,1,51,0,2,4,12.0,0.9338137988031935,51.68528360745418,55.40187053045635,20.706950346381433,0.031435360489107285
4,6,1000,1,2,True,"[74, 74, 74, 74]","[453, 848, 2177, 3210]",6.87518,8.0,3023.650000002701,1.1248199999999997,True,2,1,52,0,2,4,12.0,0.9338137988031935,51.68528360745418,55.40187053045635,4.098634502726739,0.0010078810250382338
4,5,390,4,1,True,"[74, 74, 74, 74]","[424, 836, 1074, 1370]",74.79787,93.0,2333.6699999999255,18.202129999999997,True,2,1,53,0,2,4,12.0,0.9338137988031935,51.68528360745418,55.40187053045635,13.837743484649408,0.018807710584501952
4,3,358,5,0,True,"[74, 74, 74]","[488, 830, 1091]",80.9736,94.0,3041.144999995595,13.026399999999995,True,2,1,54,0,2,4,12.0,0.9338137988031935,51.68528360745418,55.40187053045635,7.9948071256584825,0.009090116150007797
4,6,390,4,0,True,"[74, 74, 74, 74]","[499, 824, 1109, 1370]",74.79787,90.0,2663.9550000038,15.202129999999997,True,2,1,55,0,2,4,12.0,0.9338137988031935,51.68528360745418,55.40187053045635,10.837743484649408,0.011882147856195657
4,5,599,3,0,True,"[74, 74, 74]","[1591, 1945, 2351]",43.84378,50.0,2237.294999998994,6.156219999999998,True,2,1,56,0,2,4,12.0,0.9338137988031935,51.68528360745418,55.40187053045635,5.136037594929427,0.00111819731073984
4,4,425,4,2,True,"[74, 74, 74, 74]","[737, 969, 1254, 1544]",68.59844,88.0,3035.3299999989104,19.401560000000003,True,2,1,57,0,2,4,12.0,0.9338137988031935,51.68528360745418,55.40187053045635,15.706950346381433,0.018389588732854827
4,5,774,2,2,True,"[74, 74, 74, 74]","[1016, 1236, 1834, 2502]",25.3549,14.0,3989.6700000027195,-11.3549,True,2,1,58,0,2,4,12.0,0.9338137988031935,51.68528360745418,55.40187053045635,-10.377593714974633,0.011459126265246497
4,3,425,4,1,True,"[74, 74, 74]","[737, 1144, 1445]",68.59844,92.0,2778.010000001872,23.401560000000003,True,2,1,59,0,2,4,12.0,0.9338137988031935,51.68528360745418,55.40187053045635,19.706950346381433,0.0285480907332075
4,4,550,3,1,True,"[74, 74, 74, 74]","[401, 998, 1387, 1898]",50.0,50.0,909.2499999969732,0.0,True,2,1,60,0,2,4,12.0,0.9338137988031935,51.68528360745418,55.40187053045635,-1.6852836074541813,0.00015288936398786382
4,4,599,3,2,True,"[74, 74, 74, 74]","[424, 900, 1329, 1910]",43.84378,50.0,1346.5300000023562,6.156219999999998,True,2,2,61,0,2,4,12.0,0.9338137988031935,51.68528360745418,55.40187053045635,5.136037594929427,0.00111819731073984
4,2,652,2,2,True,"[74, 74, 74, 74]","[517, 917, 1550, 2159]",37.72798,33.0,3286.8600000001024,-4.727980000000002,True,2,2,62,0,2,4,12.0,0.9338137988031935,51.68528360745418,55.40187053045635,-5.087429345436433,0.0018196094627394384
4,3,550,3,1,True,"[74, 74, 74, 74]","[401, 848, 1364, 1869]",50.0,36.0,2881.345000001602,-14.0,True,2,2,63,0,2,4,12.0,0.9338137988031935,51.68528360745418,55.40187053045635,-15.685283607454181,0.011601827461156188
4,7,774,2,0,True,"[74, 74, 74, 74]","[517, 911, 1736, 2438]",25.3549,16.0,5203.145000006771,-9.3549,True,2,2,64,0,2,4,12.0,0.9338137988031935,51.68528360745418,55.40187053045635,-8.377593714974633,0.0077961495831101605
4,3,302,5,1,True,"[74, 74, 74]","[499, 836, 1120]",93.24415,92.0,3545.7450000031386,-1.2441500000000048,True,2,2,65,0,2,4,12.0,0.9338137988031935,51.68528360745418,55.40187053045635,-7.601423424992731,0.00671271178455375
4,7,599,3,0,True,"[74, 74, 74, 74]","[453, 882, 1393, 1933]",43.84378,50.0,1478.3200000019278,6.156219999999998,True,2,2,66,0,2,4,12.0,0.9338137988031935,51.68528360745418,55.40187053045635,5.136037594929427,0.00111819731073984
4,2,329,5,0,True,"[74, 74, 74]","[650, 917, 1236]",87.0672,91.0,2594.640000003157,3.9328000000000003,True,2,2,67,0,2,4,12.0,0.9338137988031935,51.68528360745418,55.40187053045635,-1.757129835143317,3.822456754460558e-05
4,4,918,1,0,True,"[74, 74, 74, 74]","[348, 784, 1782, 2653]",13.04687,7.0,2855.4000000003725,-6.04687,True,2,2,68,0,2,4,12.0,0.9338137988031935,51.68528360745418,55.40187053045635,-3.7398367293743764,0.0038859043086204082
4,6,550,3,0,True,"[74, 74, 74, 74]","[435, 824, 1306, 1811]",50.0,50.0,843.6900000013411,0.0,True,2,2,69,0,2,4,12.0,0.9338137988031935,51.68528360745418,55.40187053045635,-1.6852836074541813,0.00015288936398786382
4,4,390,4,0,True,"[74, 74, 74, 74]","[412, 848, 1132, 1399]",74.79787,87.0,2716.5150000001304,12.202129999999997,True,2,2,70,0,2,4,12.0,0.9338137988031935,51.68528360745418,55.40187053045635,7.837743484649408,0.006539847532238767
4,2,550,3,1,True,"[74, 74, 74, 74]","[424, 871, 1591, 1916]",50.0,36.0,4520.019999996293,-14.0,True,2,2,71,0,2,4,12.0,0.9338137988031935,51.68528360745418,55.40187053045635,-15.685283607454181,0.011601827461156188
4,6,425,4,2,True,"[74, 74, 74, 74]","[580, 940, 1202, 1515]",68.59844,75.0,8683.559999997728,6.4015600000000035,True,2,2,72,0,2,4,12.0,0.9338137988031935,51.68528360745418,55.40187053045635,2.706950346381433,0.0007403333385819599
4,7,843,1,2,True,"[74, 74, 74, 74]","[522, 906, 1887, 2670]",19.19495,29.0,8426.444999997271,9.805050000000001,True,2,2,73,0,2,4,12.0,0.9338137988031935,51.68528360745418,55.40187053045635,11.447864922419285,0.011597246562213623
4,6,329,5,1,True,"[74, 74, 74, 74]","[499, 813, 1062, 1300]",87.0672,87.0,3900.5550000001676,-0.0671999999999997,True,2,2,74,0,2,4,12.0,0.9338137988031935,51.68528360745418,55.40187053045635,-5.757129835143317,0.0028946838492134278
4,5,504,3,2,True,"[74, 74, 74, 74]","[453, 882, 1231, 1736]",56.30039,60.0,2270.779999998864,3.69961,True,2,2,75,0,2,4,12.0,0.9338137988031935,51.68528360745418,55.40187053045635,1.3336438668287158,0.00010097889237721873
4,6,918,1,0,True,"[74, 74, 74, 74]","[406, 935, 1968, 2868]",13.04687,28.0,2131.7000000053085,14.95313,True,2,2,76,0,2,4,12.0,0.9338137988031935,51.68528360745418,55.40187053045635,17.260163270625625,0.03525932426028114
4,5,425,4,0,True,"[74, 74, 74, 74]","[685, 1033, 1422, 1712]",68.59844,89.0,3049.2200000006706,20.401560000000003,True,2,2,77,0,2,4,12.0,0.9338137988031935,51.68528360745418,55.40187053045635,16.706950346381433,0.02072062767945603
4,4,710,2,0,True,"[74, 74, 74, 74]","[377, 882, 1591, 2258]",31.58063,20.0,3246.1150000016205,-11.58063,True,2,2,78,0,2,4,12.0,0.9338137988031935,51.68528360745418,55.40187053045635,-11.275932236298313,0.010140691348446815
4,7,390,4,1,True,"[74, 74, 74, 74]","[255, 726, 1080, 1399]",74.79787,93.0,1984.309999999823,18.202129999999997,True,2,2,79,0,2,4,12.0,0.9338137988031935,51.68528360745418,55.40187053045635,13.837743484649408,0.018807710584501952
4,5,918,1,1,True,"[74, 74, 74, 74]","[412, 923, 1904, 2804]",13.04687,16.0,2454.335000002291,2.95313,True,2,2,80,0,2,4,12.0,0.9338137988031935,51.68528360745418,55.40187053045635,5.260163270625624,0.002011854437840063
4,3,390,4,0,True,"[74, 74]","[1074, 1393]",74.79787,85.0,2401.9499999994878,10.202129999999997,True,2,2,81,0,2,4,12.0,0.9338137988031935,51.68528360745418,55.40187053045635,5.837743484649408,0.00385790420757274
4,6,710,2,2,True,"[74, 74, 74, 74, 74]","[412, 836, 1492, 2101, 2734]",31.58063,10.0,2808.9699999983422,-21.58063,True,2,2,82,0,2,4,12.0,0.9338137988031935,51.68528360745418,55.40187053045635,-21.275932236298313,0.03386379975869114
4,3,843,1,1,True,"[74, 74, 74, 74, 74]","[435, 819, 1625, 2409, 3204]",19.19495,11.0,2028.3100000014529,-8.194949999999999,True,2,2,83,0,2,4,12.0,0.9338137988031935,51.68528360745418,55.40187053045635,-6.552135077580715,0.006841426482412544
4,5,710,2,0,True,"[74, 74, 74, 74, 74]","[389, 853, 1434, 2049, 2676]",31.58063,26.0,3853.9749999982305,-5.580629999999999,True,2,2,84,0,2,4,12.0,0.9338137988031935,51.68528360745418,55.40187053045635,-5.275932236298313,0.0025713908472558616
4,2,918,1,0,True,"[74, 74, 74, 74]","[372, 917, 1974, 2862]",13.04687,21.0,5843.825000003679,7.95313,True,2,2,85,0,2,4,12.0,0.9338137988031935,51.68528360745418,55.40187053045635,10.260163270625624,0.01090021644948474
4,7,358,5,1,True,"[74, 74, 74, 74]","[435, 859, 1045, 1254]",80.9736,96.0,3185.975000000093,15.026399999999995,True,2,2,86,0,2,4,12.0,0.9338137988031935,51.68528360745418,55.40187053045635,9.994807125658483,0.013574839933894292
4,2,390,4,1,True,"[74, 74, 74, 74]","[406, 801, 1045, 1370]",74.79787,88.0,2302.909999998519,13.202129999999997,True,2,2,87,0,2,4,12.0,0.9338137988031935,51.68528360745418,55.40187053045635,8.837743484649408,0.008144696261963352
4,5,302,5,1,True,"[74, 74, 74, 74]","[424, 743, 998, 1248]",93.24415,86.0,4877.980000004638,-7.244150000000005,True,2,2,88,0,2,4,12.0,0.9338137988031935,51.68528360745418,55.40187053045635,-13.601423424992731,0.026260507830636177
4,3,652,2,2,True,"[74, 74, 74, 74]","[389, 789, 1474, 2142]",37.72798,39.0,3296.884999996051,1.2720199999999977,True,2,2,89,0,2,4,12.0,0.9338137988031935,51.68528360745418,55.40187053045635,0.9125706545635666,6.1385270750972985e-06
4,4,358,5,0,True,"[74, 74, 74, 74]","[377, 789, 1103, 1428]",80.9736,79.0,3310.490000003483,-1.9736000000000047,True,2,2,90,0,2,4,12.0,0.9338137988031935,51.68528360745418,55.40187053045635,-7.0051928743415175,0.004022795033600126
5,7,390,4,0,True,"[74, 74, 74, 74]","[186, 557, 807, 1202]",74.79787,100.0,2448.274999995192,25.202129999999997,True,2,0,1,3,3,0,45.0,0.5834746978973961,52.03526426107915,35.75099555073336,30.233761553892123,0.021871741398122584
5,4,504,3,2,True,"[74, 74, 74, 74]","[488, 1039, 1544, 2043]",56.30039,50.0,1298.1399999989662,-6.30039,True,2,0,2,3,3,0,45.0,0.5834746978973961,52.03526426107915,35.75099555073336,-6.540171593929145,0.000551511701260241
5,6,390,4,1,True,"[74, 74, 74, 74]","[517, 900, 1173, 1533]",74.79787,99.0,2755.794999997306,24.202129999999997,True,2,0,3,3,3,0,45.0,0.5834746978973961,52.03526426107915,35.75099555073336,29.233761553892123,0.020529379278626542
5,5,599,3,2,True,"[74, 74, 74, 74]","[435, 1097, 1776, 2444]",43.84378,3.0,3220.535000000382,-40.84378,True,2,0,4,3,3,0,45.0,0.5834746978973961,52.03526426107915,35.75099555073336,-44.63344494303868,0.025426622947335057
5,4,652,2,1,True,"[74, 74, 74]","[342, 1097, 1840]",37.72798,3.0,3582.9300000041258,-34.72798,True,2,0,5,3,3,0,45.0,0.5834746978973961,52.03526426107915,35.75099555073336,-40.260527549731634,0.024915751461690797
5,6,504,3,0,True,"[74, 74, 74, 74, 74]","[203, 610, 993, 1480, 1858]",56.30039,50.0,2050.4650000002584,-6.30039,True,2,0,6,3,3,0,45.0,0.5834746978973961,52.03526426107915,35.75099555073336,-6.540171593929145,0.0005515117012602411
5,5,710,2,0,True,"[74, 74, 74, 74, 74]","[255, 575, 1422, 2159, 2856]",31.58063,4.0,2462.054999996326,-27.58063,True,2,0,7,3,3,0,45.0,0.5834746978973961,52.03526426107915,35.75099555073336,-34.86504774894116,0.024223465501565313
5,3,302,5,2,True,"[74, 74, 74, 74, 74]","[75, 488, 697, 865, 1184]",93.24415,89.0,2486.3100000002305,-4.244150000000005,True,2,0,8,3,3,0,45.0,0.5834746978973961,52.03526426107915,35.75099555073336,6.044304984088939,0.004321909222497872
5,6,652,2,0,True,"[74, 74, 74, 74]","[551, 784, 1190, 2003]",37.72798,13.0,4095.0099999972736,-24.727980000000002,True,2,0,9,3,3,0,45.0,0.5834746978973961,52.03526426107915,35.75099555073336,-30.260527549731634,0.014609495126948509
5,2,302,5,1,True,"[74, 74, 74]","[424, 668, 1033]",93.24415,96.0,2004.1850000052364,2.7558499999999952,True,2,0,10,3,3,0,45.0,0.5834746978973961,52.03526426107915,35.75099555073336,13.044304984088939,0.012474490981637968
5,3,599,3,0,True,"[74, 74, 74, 74]","[255, 998, 1683, 2293]",43.84378,17.0,2576.6749999966123,-26.843780000000002,True,2,0,11,3,3,0,45.0,0.5834746978973961,52.03526426107915,35.75099555073336,-30.633444943038683,0.012387458788453494
5,4,358,5,1,True,"[74, 74, 74, 74]","[238, 760, 1132, 1469]",80.9736,96.0,3771.5099999986705,15.026399999999995,True,2,0,12,3,3,0,45.0,0.5834746978973961,52.03526426107915,35.75099555073336,21.817993909553323,0.01608386727437834
5,2,463,4,1,True,"[74, 74, 74, 74]","[366, 882, 1411, 1898]",62.42097,50.0,1485.160000003816,-12.420969999999997,True,2,0,13,3,3,0,45.0,0.5834746978973961,52.03526426107915,35.75099555073336,-10.916506024396377,0.0015073346058177464
5,5,302,5,2,True,"[74, 74, 74]","[476, 795, 1074]",93.24415,98.0,2701.8200000020443,4.755849999999995,True,2,0,14,3,3,0,45.0,0.5834746978973961,52.03526426107915,35.75099555073336,15.044304984088939,0.015579350849482625
5,3,710,2,1,True,"[74, 74, 74, 74]","[923, 1411, 2177, 2862]",31.58063,9.0,2805.769999999029,-22.58063,True,2,0,15,3,3,0,45.0,0.5834746978973961,52.03526426107915,35.75099555073336,-29.86504774894116,0.018268301786441184
5,4,1000,1,0,True,"[74, 74, 74, 74]","[232, 447, 1207, 3477]",6.87518,0.0,4155.960000003688,-6.87518,True,2,0,16,3,3,0,45.0,0.5834746978973961,52.03526426107915,35.75099555073336,-21.20015657613988,0.03185654603070658
5,7,599,3,1,True,"[74, 74, 74, 74, 74]","[58, 540, 1126, 1898, 2380]",43.84378,50.0,992.2799999985727,6.156219999999998,True,2,0,17,3,3,0,45.0,0.5834746978973961,52.03526426107915,35.75099555073336,2.3665550569613174,4.915384989618573e-06
5,2,918,1,1,True,"[74, 74, 74, 74]","[174, 563, 1846, 2815]",13.04687,99.0,2533.8250000058906,85.95313,True,2,0,18,3,3,0,45.0,0.5834746978973961,52.03526426107915,35.75099555073336,73.38695713948341,0.15903207695865568
5,7,329,5,2,True,"[74, 74, 74, 74, 74]","[418, 639, 853, 1068, 1353]",87.0672,50.0,1025.0599999999395,-37.0672,True,2,0,19,3,3,0,45.0,0.5834746978973961,52.03526426107915,35.75099555073336,-28.539051546371454,0.021885708214607013
5,5,463,4,0,True,"[74, 74, 74, 74, 74]","[192, 575, 969, 1382, 1817]",62.42097,50.0,2912.750000003143,-12.420969999999997,True,2,0,20,3,3,0,45.0,0.5834746978973961,52.03526426107915,35.75099555073336,-10.916506024396377,0.0015073346058177464
5,6,1000,1,1,True,"[74, 74, 74]","[366, 2241, 3268]",6.87518,6.0,3931.315000001632,-0.8751800000000003,True,2,0,21,3,3,0,45.0,0.5834746978973961,52.03526426107915,35.75099555073336,-15.200156576139879,0.019345305451079584
5,2,504,3,2,True,"[74, 74, 74, 74]","[563, 998, 1608, 2020]",56.30039,50.0,5624.004999997851,-6.30039,True,2,0,22,3,3,0,45.0,0.5834746978973961,52.03526426107915,35.75099555073336,-6.540171593929145,0.0005515117012602411
5,7,1000,1,0,True,"[74, 74]","[673, 1602]",6.87518,11.0,1858.1450000056066,4.12482,True,2,0,23,3,3,0,45.0,0.5834746978973961,52.03526426107915,35.75099555073336,-10.200156576139879,0.011290525798121185
5,6,329,5,1,True,,,87.0672,93.0,2188.2449999975506,5.9328,False,1,0,24,3,3,0,45.0,0.5834746978973961,52.03526426107915,35.75099555073336,14.460948453628546,0.010753509186771511
5,3,1000,1,0,True,"[74, 74, 74, 74, 74]","[1445, 1788, 2148, 2961, 3779]",6.87518,96.0,3663.6600000056205,89.12482,True,2,0,25,3,3,0,45.0,0.5834746978973961,52.03526426107915,35.75099555073336,74.79984342386012,0.20417916897038188
5,2,652,2,0,True,"[74, 74, 74]","[522, 1219, 1910]",37.72798,10.0,4980.844999998226,-27.727980000000002,True,2,0,26,3,3,0,45.0,0.5834746978973961,52.03526426107915,35.75099555073336,-33.260527549731634,0.01741423162632375
5,3,425,4,0,True,"[74, 74, 74, 74]","[528, 888, 1265, 1620]",68.59844,67.0,6782.149999999092,-1.5984399999999965,True,2,0,27,3,3,0,45.0,0.5834746978973961,52.03526426107915,35.75099555073336,1.6664816335479884,0.00013146266543802884
5,7,652,2,0,True,"[74, 74, 74, 74]","[116, 615, 1318, 1962]",37.72798,50.0,3051.6499999939697,12.272019999999998,True,2,0,28,3,3,0,45.0,0.5834746978973961,52.03526426107915,35.75099555073336,6.739472450268366,0.00025430656561703253
5,5,843,1,2,True,"[74, 74, 74]","[267, 656, 1451]",19.19495,22.0,3193.534999998519,2.8050500000000014,True,2,0,29,3,3,0,45.0,0.5834746978973961,52.03526426107915,35.75099555073336,-8.009039703314645,0.004273219302214816
5,4,425,4,0,True,"[74, 74, 74, 74]","[412, 801, 1225, 1602]",68.59844,86.0,3124.7000000003027,17.401560000000003,True,2,0,30,3,3,0,45.0,0.5834746978973961,52.03526426107915,35.75099555073336,20.66648163354799,0.007982350837173283
5,5,329,5,0,True,"[74, 74, 74, 74, 74]","[244, 569, 772, 975, 1213]",87.0672,82.0,1587.744999997085,-5.0672,True,2,1,31,3,3,0,45.0,0.5834746978973961,52.03526426107915,35.75099555073336,3.4609484536285464,0.0015465964780255956
5,4,710,2,2,True,"[74, 74, 74, 74]","[447, 1248, 1997, 2699]",31.58063,76.0,2905.0849999985076,44.41937,True,2,1,32,3,3,0,45.0,0.5834746978973961,52.03526426107915,35.75099555073336,37.13495225105884,0.0193914338568789
5,2,1000,1,0,True,"[74, 74]","[656, 1660]",6.87518,15.0,4161.184999997204,8.12482,True,2,1,33,3,3,0,45.0,0.5834746978973961,52.03526426107915,35.75099555073336,-6.200156576139879,0.006398795709978243
5,4,390,4,2,True,[74],[255],74.79787,83.0,2217.8550000025425,8.202129999999997,True,2,1,34,3,3,0,45.0,0.5834746978973961,52.03526426107915,35.75099555073336,13.233761553892123,0.0048326764302187965
5,7,302,5,1,True,,,93.24415,82.0,2598.7200000017183,-11.244150000000005,False,1,1,35,3,3,0,45.0,0.5834746978973961,52.03526426107915,35.75099555073336,-0.9556950159110613,0.00039177067407187096
5,5,652,2,1,True,[74],[1457],37.72798,50.0,2059.9099999963073,12.272019999999998,True,2,1,36,3,3,0,45.0,0.5834746978973961,52.03526426107915,35.75099555073336,6.739472450268366,0.00025430656561703253
5,6,358,5,0,True,,,80.9736,50.0,2365.929999999935,-30.973600000000005,False,1,1,37,3,3,0,45.0,0.5834746978973961,52.03526426107915,35.75099555073336,-24.182006090446677,0.012659445160158338
5,5,390,4,2,True,"[74, 74, 74]","[906, 1231, 1608]",74.79787,12.0,4086.8400000035763,-62.79787,True,2,1,38,3,3,0,45.0,0.5834746978973961,52.03526426107915,35.75099555073336,-57.76623844610788,0.06646458511179695
5,4,329,5,0,True,,,87.0672,73.0,2018.449999995879,-14.0672,False,1,1,39,3,3,0,45.0,0.5834746978973961,52.03526426107915,35.75099555073336,-5.539051546371454,0.0001779952264200378
5,2,425,4,2,True,"[74, 74, 74]","[766, 1109, 1492]",68.59844,50.0,3386.4699999976438,-18.598439999999997,True,2,1,40,3,3,0,45.0,0.5834746978973961,52.03526426107915,35.75099555073336,-15.333518366452012,0.0033889692940867054
5,3,329,5,1,True,"[74, 74, 74, 74, 74]","[406, 644, 819, 1016, 1202]",87.0672,81.0,3024.6299999998882,-6.0672,True,2,1,41,3,3,0,45.0,0.5834746978973961,52.03526426107915,35.75099555073336,2.4609484536285464,0.0011205595688126458
5,7,504,3,2,True,"[74, 74, 74, 74]","[668, 1022, 1649, 1997]",56.30039,77.0,2278.8650000002235,20.69961,True,2,1,42,3,3,0,45.0,0.5834746978973961,52.03526426107915,35.75099555073336,20.459828406070855,0.0048161087241552925
5,3,843,1,2,True,,,19.19495,6.0,1678.4150000021327,-13.194949999999999,False,1,1,43,3,3,0,45.0,0.5834746978973961,52.03526426107915,35.75099555073336,-24.009039703314645,0.022071819357332826
5,6,774,2,1,True,,,25.3549,50.0,2437.675000000978,24.6451,False,1,1,44,3,3,0,45.0,0.5834746978973961,52.03526426107915,35.75099555073336,15.586471079249279,0.0029244309322135867
5,3,390,4,2,True,,,74.79787,50.0,528.7600000011735,-24.797870000000003,False,1,1,45,3,3,0,45.0,0.5834746978973961,52.03526426107915,35.75099555073336,-19.766238446107877,0.006825963017606033
5,6,918,1,2,True,[74],[743],13.04687,4.0,4623.5149999993155,-9.04687,True,2,1,46,3,3,0,45.0,0.5834746978973961,52.03526426107915,35.75099555073336,-21.613042860516586,0.024773442270566184
5,3,504,3,1,True,,,56.30039,50.0,704.0800000032177,-6.30039,False,1,1,47,3,3,0,45.0,0.5834746978973961,52.03526426107915,35.75099555073336,-6.540171593929145,0.0005515117012602411
5,5,918,1,1,True,"[74, 74, 74]","[563, 1196, 2548]",13.04687,50.0,1278.0600000041304,36.95313,True,2,1,48,3,3,0,45.0,0.5834746978973961,52.03526426107915,35.75099555073336,24.386957139483414,0.01252482611891451
5,4,550,3,0,True,"[74, 74]","[639, 1950]",50.0,50.0,2894.2900000037625,0.0,True,2,1,49,3,3,0,45.0,0.5834746978973961,52.03526426107915,35.75099555073336,-2.035264261079149,0.00010411146753467658
5,2,329,5,0,True,,,87.0672,94.0,2834.414999997476,6.9328,False,1,1,50,3,3,0,45.0,0.5834746978973961,52.03526426107915,35.75099555073336,15.460948453628546,0.012001456406421453
5,5,550,3,1,True,"[74, 74, 74, 74]","[261, 1016, 1562, 2130]",50.0,50.0,5217.94999999844,0.0,True,2,1,51,3,3,0,45.0,0.5834746978973961,52.03526426107915,35.75099555073336,-2.035264261079149,0.00010411146753467658
5,7,843,1,1,True,"[74, 74, 74]","[377, 1231, 3187]",19.19495,50.0,1932.020000000135,30.80505,True,2,1,52,3,3,0,45.0,0.5834746978973961,52.03526426107915,35.75099555073336,19.990960296685355,0.0064357541561781235
5,2,599,3,0,True,"[74, 74, 74, 74]","[499, 1271, 1800, 2235]",43.84378,50.0,7756.694999996456,6.156219999999998,True,2,1,53,3,3,0,45.0,0.5834746978973961,52.03526426107915,35.75099555073336,2.3665550569613174,4.915384989618573e-06
5,7,710,2,1,True,"[74, 74, 74, 74]","[430, 1358, 1927, 2537]",31.58063,50.0,5580.504999998142,18.41937,True,2,1,54,3,3,0,45.0,0.5834746978973961,52.03526426107915,35.75099555073336,11.134952251058841,0.0010735021414425292
5,6,425,4,2,True,,,68.59844,50.0,3383.605000002659,-18.598439999999997,False,1,1,55,3,3,0,45.0,0.5834746978973961,52.03526426107915,35.75099555073336,-15.333518366452012,0.0033889692940867054
5,3,652,2,2,True,"[74, 74, 74, 74]","[580, 1231, 1892, 2485]",37.72798,50.0,1336.4749999964843,12.272019999999998,True,2,1,56,3,3,0,45.0,0.5834746978973961,52.03526426107915,35.75099555073336,6.739472450268366,0.00025430656561703253
5,7,463,4,2,True,"[74, 74]","[1324, 1556]",62.42097,82.0,6087.854999998002,19.579030000000003,True,2,1,57,3,3,0,45.0,0.5834746978973961,52.03526426107915,35.75099555073336,21.083493975603623,0.006324144581183136
5,4,843,1,2,True,"[74, 74, 74]","[267, 1283, 2914]",19.19495,50.0,1207.2800000023562,30.80505,True,2,1,58,3,3,0,45.0,0.5834746978973961,52.03526426107915,35.75099555073336,19.990960296685355,0.0064357541561781235
5,6,599,3,2,True,"[74, 74]","[1707, 2363]",43.84378,50.0,1742.6599999963073,6.156219999999998,True,2,1,59,3,3,0,45.0,0.5834746978973961,52.03526426107915,35.75099555073336,2.3665550569613174,4.915384989618573e-06
5,2,710,2,2,True,[74],[2833],31.58063,68.0,5066.270000002929,36.41937,True,2,1,60,3,3,0,45.0,0.5834746978973961,52.03526426107915,35.75099555073336,29.13495225105884,0.011339555358695694
5,7,425,4,1,True,"[74, 74, 74]","[546, 1219, 1649]",68.59844,50.0,3930.4950000005774,-18.598439999999997,True,2,2,61,3,3,0,45.0,0.5834746978973961,52.03526426107915,35.75099555073336,-15.333518366452012,0.0033889692940867054
5,3,774,2,0,True,"[74, 74, 74, 74, 74, 74]","[186, 604, 888, 2067, 2490, 2966]",25.3549,50.0,5015.970000000438,24.6451,True,2,2,62,3,3,0,45.0,0.5834746978973961,52.03526426107915,35.75099555073336,15.586471079249279,0.0029244309322135867
5,6,463,4,0,True,"[74, 74, 74]","[766, 1242, 1892]",62.42097,50.0,3809.8899999967543,-12.420969999999997,True,2,2,63,3,3,0,45.0,0.5834746978973961,52.03526426107915,35.75099555073336,-10.916506024396377,0.0015073346058177464
5,7,918,1,2,True,"[74, 74]","[1556, 2101]",13.04687,50.0,3450.5700000009965,36.95313,True,2,2,64,3,3,0,45.0,0.5834746978973961,52.03526426107915,35.75099555073336,24.386957139483414,0.01252482611891451
5,6,710,2,2,True,"[74, 74, 74, 74]","[784, 1382, 2096, 2769]",31.58063,50.0,1273.4100000016624,18.41937,True,2,2,65,3,3,0,45.0,0.5834746978973961,52.03526426107915,35.75099555073336,11.134952251058841,0.0010735021414425292
5,7,358,5,0,True,"[74, 74]","[517, 958]",80.9736,50.0,8573.299999996438,-30.973600000000005,True,2,2,66,3,3,0,45.0,0.5834746978973961,52.03526426107915,35.75099555073336,-24.182006090446677,0.012659445160158338
5,6,843,1,0,True,"[74, 74, 74]","[2328, 2810, 3413]",19.19495,50.0,2835.835000005318,30.80505,True,2,2,67,3,3,0,45.0,0.5834746978973961,52.03526426107915,35.75099555073336,19.990960296685355,0.0064357541561781235
5,7,774,2,2,True,"[74, 74, 74, 74]","[1126, 1573, 2078, 2920]",25.3549,50.0,5432.83499999973,24.6451,True,2,2,68,3,3,0,45.0,0.5834746978973961,52.03526426107915,35.75099555073336,15.586471079249279,0.0029244309322135867
5,5,504,3,0,True,"[74, 74, 74, 74]","[424, 975, 1480, 1863]",56.30039,50.0,4185.160000000964,-6.30039,True,2,2,69,3,3,0,45.0,0.5834746978973961,52.03526426107915,35.75099555073336,-6.540171593929145,0.0005515117012602411
5,4,918,1,1,True,"[74, 74, 74, 74, 74]","[592, 1393, 2415, 2937, 3675]",13.04687,50.0,1963.1249999947613,36.95313,True,2,2,70,3,3,0,45.0,0.5834746978973961,52.03526426107915,35.75099555073336,24.386957139483414,0.01252482611891451
5,2,550,3,1,True,[74],[493],50.0,16.0,6412.270000000717,-34.0,True,2,2,71,3,3,0,45.0,0.5834746978973961,52.03526426107915,35.75099555073336,-36.03526426107915,0.015383083697141123
5,5,425,4,1,True,"[74, 74, 74]","[551, 1010, 1689]",68.59844,77.0,4418.864999999641,8.401560000000003,True,2,2,72,3,3,0,45.0,0.5834746978973961,52.03526426107915,35.75099555073336,11.666481633547988,0.0027514523776220306
5,4,774,2,0,True,"[74, 74, 74]","[354, 2618, 3077]",25.3549,50.0,9775.59000000474,24.6451,True,2,2,73,3,3,0,45.0,0.5834746978973961,52.03526426107915,35.75099555073336,15.586471079249279,0.0029244309322135867
5,2,390,4,0,True,"[74, 74]","[1051, 1457]",74.79787,75.0,5372.84999999986,0.2021299999999968,True,2,2,74,3,3,0,45.0,0.5834746978973961,52.03526426107915,35.75099555073336,5.233761553892123,0.0010650951685058432
5,3,550,3,2,True,"[74, 74, 74]","[493, 1068, 1567]",50.0,50.0,3651.709999998333,0.0,True,2,2,75,3,3,0,45.0,0.5834746978973961,52.03526426107915,35.75099555073336,-2.035264261079149,0.00010411146753467658
5,4,463,4,1,True,,,62.42097,50.0,2869.46500000346,-12.420969999999997,False,1,2,76,3,3,0,45.0,0.5834746978973961,52.03526426107915,35.75099555073336,-10.916506024396377,0.0015073346058177464
5,2,843,1,2,True,"[74, 74, 74, 74]","[639, 1080, 2432, 3193]",19.19495,50.0,3875.7549999937182,30.80505,True,2,2,77,3,3,0,45.0,0.5834746978973961,52.03526426107915,35.75099555073336,19.990960296685355,0.0064357541561781235
5,3,358,5,0,True,,,80.9736,50.0,4450.820000005537,-30.973600000000005,False,1,2,78,3,3,0,45.0,0.5834746978973961,52.03526426107915,35.75099555073336,-24.182006090446677,0.012659445160158338
5,5,774,2,2,True,"[74, 74, 74]","[221, 1858, 2444]",25.3549,50.0,766.4549999972805,24.6451,True,2,2,79,3,3,0,45.0,0.5834746978973961,52.03526426107915,35.75099555073336,15.586471079249279,0.0029244309322135867
5,3,918,1,1,True,"[74, 74, 74]","[505, 1614, 2955]",13.04687,10.0,3758.304999995744,-3.04687,True,2,2,80,3,3,0,45.0,0.5834746978973961,52.03526426107915,35.75099555073336,-15.613042860516586,0.014949561336881986
5,6,302,5,2,True,"[74, 74, 74]","[464, 679, 882]",93.24415,87.0,2651.190000004135,-6.244150000000005,True,2,2,81,3,3,0,45.0,0.5834746978973961,52.03526426107915,35.75099555073336,4.044304984088939,0.0027681509422624747
5,4,599,3,1,True,"[74, 74, 74, 74]","[604, 1173, 1771, 2432]",43.84378,67.0,4099.80500000529,23.156219999999998,True,2,2,82,3,3,0,45.0,0.5834746978973961,52.03526426107915,35.75099555073336,19.366555056961317,0.003683885526108756
5,5,358,5,1,True,"[74, 74, 74, 74]","[859, 1074, 1248, 1451]",80.9736,98.0,2755.9049999981653,17.026399999999995,True,2,2,83,3,3,0,45.0,0.5834746978973961,52.03526426107915,35.75099555073336,23.817993909553323,0.018831556236798233
5,6,550,3,1,True,"[74, 74, 74]","[377, 935, 1591]",50.0,50.0,3348.639999996405,0.0,True,2,2,84,3,3,0,45.0,0.5834746978973961,52.03526426107915,35.75099555073336,-2.035264261079149,0.00010411146753467658
5,3,463,4,1,True,"[74, 74, 74, 74]","[348, 842, 1120, 1724]",62.42097,73.0,7034.554999998305,10.579030000000003,True,2,2,85,3,3,0,45.0,0.5834746978973961,52.03526426107915,35.75099555073336,12.083493975603623,0.0021380324463560474
5,4,302,5,2,True,"[74, 74, 74, 74]","[592, 807, 993, 1184]",93.24415,92.0,3977.6649999986403,-1.2441500000000048,True,2,2,86,3,3,0,45.0,0.5834746978973961,52.03526426107915,35.75099555073336,9.044304984088939,0.007298838971021494
5,2,774,2,1,True,"[74, 74, 74]","[41, 586, 2415]",25.3549,9.0,3568.4699999983422,-16.3549,True,2,2,87,3,3,0,45.0,0.5834746978973961,52.03526426107915,35.75099555073336,-25.41352892075072,0.01819318470596926
5,5,1000,1,0,True,"[74, 74, 74, 74, 74, 74, 74]","[139, 673, 1190, 1759, 2252, 3437, 3860]",6.87518,50.0,3440.445000000298,43.12482,True,2,2,88,3,3,0,45.0,0.5834746978973961,52.03526426107915,35.75099555073336,28.79984342386012,0.022446374403045914
5,2,358,5,2,True,"[74, 74]","[354, 1016]",80.9736,72.0,3685.839999998454,-8.973600000000005,True,2,2,89,3,3,0,45.0,0.5834746978973961,52.03526426107915,35.75099555073336,-2.182006090446677,3.8065140068112565e-06
5,7,550,3,0,True,"[74, 74, 74]","[836, 1254, 1800]",50.0,50.0,4088.649999998044,0.0,True,2,2,90,3,3,0,45.0,0.5834746978973961,52.03526426107915,35.75099555073336,-2.035264261079149,0.00010411146753467658
7,6,463,4,0,True,"[74, 74, 74, 74, 74]","[240, 589, 1000, 1429, 1869]",62.42097,64.0,1936.7649999912828,1.579030000000003,True,2,0,1,3,3,0,21.0,0.9351444100282712,49.35628836128819,56.09051179873147,0.7097389412014792,1.2252181484772869e-05
7,3,710,2,0,True,"[74, 74, 74, 74, 74]","[248, 608, 1128, 1659, 2280]",31.58063,18.0,2524.4149998761714,-13.58063,True,2,0,2,3,3,0,21.0,0.9351444100282712,49.35628836128819,56.09051179873147,-10.69325021966166,0.012950340008054315
7,7,329,5,0,True,"[74, 74, 74, 74]","[261, 651, 960, 1309]",87.0672,83.0,2764.064999995753,-4.0672,True,2,0,3,3,3,0,21.0,0.9351444100282712,49.35628836128819,56.09051179873147,-7.938654685245339,0.006173891961634515
7,4,774,2,1,True,"[74, 74, 74, 74]","[309, 811, 1651, 2440]",25.3549,24.0,1517.1499999705702,-1.3549000000000007,True,2,0,4,3,3,0,21.0,0.9351444100282712,49.35628836128819,56.09051179873147,2.290834153613062,4.4884334948743694e-05
7,3,504,3,0,True,"[74, 74, 74, 74]","[251, 661, 1061, 1611]",56.30039,50.0,1499.2499998770654,-6.30039,True,2,0,5,3,3,0,21.0,0.9351444100282712,49.35628836128819,56.09051179873147,-6.424135116683836,0.0026606237231547
7,2,918,1,1,True,"[74, 74, 74, 74, 74]","[251, 691, 1221, 2069, 3000]",13.04687,0.0,2417.6350000780076,-13.04687,True,2,0,6,3,3,0,21.0,0.9351444100282712,49.35628836128819,56.09051179873147,-7.901892521770133,0.02104611493070243
7,6,652,2,1,True,"[74, 74, 74, 74]","[259, 669, 1419, 2128]",37.72798,33.0,2137.875000014901,-4.727980000000002,True,2,0,7,3,3,0,21.0,0.9351444100282712,49.35628836128819,56.09051179873147,-2.5894137482397213,0.0013135610733353727
7,7,599,3,1,True,"[74, 74, 74, 74]","[248, 699, 1309, 1880]",43.84378,50.0,1199.06000001356,6.156219999999998,True,2,0,8,3,3,0,21.0,0.9351444100282712,49.35628836128819,56.09051179873147,7.54982137330822,0.0018358052334541061
7,6,1000,1,1,True,"[74, 74, 74, 74]","[280, 1299, 2280, 3179]",6.87518,6.0,1567.005000077188,-0.8751800000000003,True,2,0,9,3,3,0,21.0,0.9351444100282712,49.35628836128819,56.09051179873147,5.021580416180393,8.851468530892502e-05
7,7,710,2,1,True,"[74, 74, 74, 74]","[261, 691, 1571, 2261]",31.58063,33.0,2831.9749999791384,1.4193700000000007,True,2,0,10,3,3,0,21.0,0.9351444100282712,49.35628836128819,56.09051179873147,4.30674978033834,0.000235290106061369
7,3,918,1,2,True,"[74, 74, 74, 74]","[301, 931, 1960, 2880]",13.04687,16.0,2264.82000015676,2.95313,True,2,0,11,3,3,0,21.0,0.9351444100282712,49.35628836128819,56.09051179873147,8.098107478229867,0.002686244339967936
7,5,425,4,1,True,"[74, 74, 74, 74]","[261, 691, 971, 1320]",68.59844,85.0,1955.470000160858,16.401560000000003,True,2,0,12,3,3,0,21.0,0.9351444100282712,49.35628836128819,56.09051179873147,14.779792541928927,0.016644740403049117
7,2,329,5,0,True,"[74, 74, 74, 74]","[251, 640, 931, 1171]",87.0672,99.0,3434.6749999094754,11.9328,True,2,0,13,3,3,0,21.0,0.9351444100282712,49.35628836128819,56.09051179873147,8.06134531475466,0.013981238884706565
7,4,463,4,2,True,"[74, 74, 74, 74, 74]","[269, 621, 1029, 1469, 1909]",62.42097,67.0,1942.9999999701977,4.579030000000003,True,2,0,14,3,3,0,21.0,0.9351444100282712,49.35628836128819,56.09051179873147,3.709738941201479,0.0007194491490215908
7,5,918,1,1,True,"[74, 74, 74, 74, 74]","[280, 739, 1371, 2069, 2931]",13.04687,0.0,3261.6949998773634,-13.04687,True,2,0,15,3,3,0,21.0,0.9351444100282712,49.35628836128819,56.09051179873147,-7.901892521770133,0.02104611493070243
7,4,504,3,2,True,"[74, 74, 74, 74, 74]","[240, 680, 1091, 1571, 2040]",56.30039,50.0,824.8299998231232,-6.30039,True,2,0,16,3,3,0,21.0,0.9351444100282712,49.35628836128819,56.09051179873147,-6.424135116683836,0.0026606237231547
7,3,425,4,2,True,"[74, 74, 74, 74, 74]","[240, 640, 949, 1339, 1731]",68.59844,85.0,3260.9899998642504,16.401560000000003,True,2,0,17,3,3,0,21.0,0.9351444100282712,49.35628836128819,56.09051179873147,14.779792541928927,0.016644740403049117
7,5,774,2,1,True,"[74, 74, 74, 74, 74]","[280, 629, 1189, 1819, 2459]",25.3549,17.0,2375.535000115633,-8.3549,True,2,0,18,3,3,0,21.0,0.9351444100282712,49.35628836128819,56.09051179873147,-4.709165846386938,0.005552266304254173
7,2,599,3,2,True,"[74, 74, 74, 74]","[309, 869, 1328, 1859]",43.84378,42.0,2415.860000066459,-1.8437800000000024,True,2,0,19,3,3,0,21.0,0.9351444100282712,49.35628836128819,56.09051179873147,-0.45017862669178044,0.00022496958101046976
7,4,1000,1,2,True,"[74, 74, 74, 74, 74]","[269, 731, 1331, 2269, 3360]",6.87518,0.0,2879.179999930784,-6.87518,True,2,0,20,3,3,0,21.0,0.9351444100282712,49.35628836128819,56.09051179873147,-0.9784195838196067,0.0053881256897364525
7,2,390,4,2,True,"[74, 74, 74, 74, 74]","[269, 640, 899, 1179, 1571]",74.79787,100.0,2250.759999966249,25.202129999999997,True,2,0,21,3,3,0,21.0,0.9351444100282712,49.35628836128819,56.09051179873147,22.825201932680528,0.05175104630182868
7,4,358,5,0,True,"[74, 74, 74, 74, 74]","[259, 608, 859, 1139, 1469]",80.9736,91.0,2162.5000000931323,10.026399999999995,True,2,0,22,3,3,0,21.0,0.9351444100282712,49.35628836128819,56.09051179873147,6.897208366633905,0.007656283274353635
7,7,425,4,0,True,"[74, 74, 74, 74]","[288, 688, 1000, 1349]",68.59844,59.0,4208.150000078604,-9.598439999999997,True,2,0,23,3,3,0,21.0,0.9351444100282712,49.35628836128819,56.09051179873147,-11.220207458071073,0.009024483413767038
7,6,550,3,0,True,"[74, 74, 74, 74]","[269, 600, 1189, 1749]",50.0,50.0,1416.9300000648946,0.0,True,2,0,24,3,3,0,21.0,0.9351444100282712,49.35628836128819,56.09051179873147,0.6437116387118067,1.381751637162732e-05
7,5,358,5,0,True,"[74, 74, 74, 74]","[291, 669, 989, 1419]",80.9736,100.0,2741.5899999905378,19.026399999999995,True,2,0,25,3,3,0,21.0,0.9351444100282712,49.35628836128819,56.09051179873147,15.897208366633905,0.03457009007508746
7,2,774,2,0,True,"[74, 74, 74, 74, 74]","[291, 621, 1280, 1821, 2429]",25.3549,3.0,2359.1350000351667,-22.3549,True,2,0,26,3,3,0,21.0,0.9351444100282712,49.35628836128819,56.09051179873147,-18.709165846386938,0.04415942421701341
7,6,329,5,2,True,"[74, 74, 74, 74]","[248, 608, 979, 1299]",87.0672,100.0,3211.654999991879,12.9328,True,2,0,27,3,3,0,21.0,0.9351444100282712,49.35628836128819,56.09051179873147,9.06134531475466,0.017041556911045152
7,5,550,3,0,True,"[74, 74, 74, 74, 74]","[261, 669, 1149, 1669, 2171]",50.0,39.0,2897.1349999774247,-11.0,True,2,0,28,3,3,0,21.0,0.9351444100282712,49.35628836128819,56.09051179873147,-10.356288361288193,0.006581311849899054
7,3,329,5,1,True,"[74, 74, 74, 74, 74]","[128, 589, 808, 1029, 1309]",87.0672,89.0,1942.6300001796335,1.9328000000000003,True,2,0,29,3,3,0,21.0,0.9351444100282712,49.35628836128819,56.09051179873147,-1.9386546852453392,2.2733491975064007e-05
7,7,843,1,1,True,"[74, 74, 74, 74, 74]","[251, 571, 1091, 1781, 2531]",19.19495,12.0,2205.3950000554323,-7.194949999999999,True,2,0,30,3,3,0,21.0,0.9351444100282712,49.35628836128819,56.09051179873147,-2.7988672487604394,0.004642331757869205
7,7,652,2,0,True,"[74, 74, 74, 74]","[240, 731, 1349, 2011]",37.72798,29.0,4945.685000158846,-8.727980000000002,True,2,1,31,3,3,0,21.0,0.9351444100282712,49.35628836128819,56.09051179873147,-6.589413748239721,0.004533854903499282
7,6,843,1,2,True,"[74, 74, 74, 74, 74]","[200, 739, 1371, 1891, 2659]",19.19495,13.0,2029.755000025034,-6.194949999999999,True,2,1,32,3,3,0,21.0,0.9351444100282712,49.35628836128819,56.09051179873147,-1.7988672487604394,0.003272381429974105
7,2,710,2,1,True,"[74, 74, 74, 74]","[248, 680, 1499, 2240]",31.58063,25.0,2154.4249998405576,-6.580629999999999,True,2,1,33,3,3,0,21.0,0.9351444100282712,49.35628836128819,56.09051179873147,-3.6932502196616603,0.0028659769683855537
7,5,329,5,1,True,"[74, 74, 74, 74]","[291, 611, 880, 1211]",87.0672,90.0,2158.9299999177456,2.9328000000000003,True,2,1,34,3,3,0,21.0,0.9351444100282712,49.35628836128819,56.09051179873147,-0.9386546852453392,5.6746996376493785e-05
7,3,390,4,0,True,"[74, 74, 74, 74]","[221, 571, 1029, 1331]",74.79787,86.0,2587.0900000445545,11.202129999999997,True,2,1,35,3,3,0,21.0,0.9351444100282712,49.35628836128819,56.09051179873147,8.825201932680528,0.008430683734614265
7,5,710,2,2,True,"[74, 74, 74, 74]","[240, 621, 1461, 2200]",31.58063,25.0,1803.940000012517,-6.580629999999999,True,2,1,36,3,3,0,21.0,0.9351444100282712,49.35628836128819,56.09051179873147,-3.6932502196616603,0.0028659769683855537
7,7,302,5,2,True,"[74, 74, 74, 74]","[251, 600, 821, 1091]",93.24415,85.0,1712.1200000401586,-8.244150000000005,True,2,1,37,3,3,0,21.0,0.9351444100282712,49.35628836128819,56.09051179873147,-12.868022352432462,0.02246588878397118
7,5,463,4,2,True,"[74, 74, 74, 74, 74, 74]","[291, 560, 931, 1099, 1419, 1760]",62.42097,67.0,2538.3399999700487,4.579030000000003,True,2,1,38,3,3,0,21.0,0.9351444100282712,49.35628836128819,56.09051179873147,3.709738941201479,0.0007194491490215908
7,3,302,5,2,True,"[74, 74, 74, 74, 74]","[269, 571, 789, 1040, 1251]",93.24415,100.0,2596.3699999265373,6.755849999999995,True,2,1,39,3,3,0,21.0,0.9351444100282712,49.35628836128819,56.09051179873147,2.1319776475675383,0.0032578715413775516
7,5,599,3,2,True,"[74, 74, 74, 74]","[280, 709, 1320, 2221]",43.84378,37.0,4524.955000029877,-6.843780000000002,True,2,1,40,3,3,0,21.0,0.9351444100282712,49.35628836128819,56.09051179873147,-5.45017862669178,0.0026165566046233647
7,4,329,5,1,True,"[74, 74, 74, 74]","[280, 549, 811, 1091]",87.0672,73.0,2773.629999952391,-14.0672,True,2,1,41,3,3,0,21.0,0.9351444100282712,49.35628836128819,56.09051179873147,-17.93865468524534,0.04063625891989752
7,6,774,2,2,True,"[74, 74, 74, 74, 74]","[251, 541, 1061, 1701, 2411]",25.3549,22.0,1861.185000045225,-3.3549000000000007,True,2,1,42,3,3,0,21.0,0.9351444100282712,49.35628836128819,56.09051179873147,0.2908341536130621,0.0006799052386227993
7,4,390,4,1,True,"[74, 74, 74, 74]","[280, 589, 931, 1280]",74.79787,71.0,2228.1700000166893,-3.797870000000003,True,2,1,43,3,3,0,21.0,0.9351444100282712,49.35628836128819,56.09051179873147,-6.174798067319472,0.0028667194194630947
7,6,358,5,1,True,"[74, 74, 74, 74, 74]","[251, 560, 880, 1160, 1480]",80.9736,70.0,2313.624999951571,-10.973600000000005,True,2,1,44,3,3,0,21.0,0.9351444100282712,49.35628836128819,56.09051179873147,-14.102791633366095,0.020212352019262945
7,4,843,1,1,True,"[74, 74, 74, 74, 74]","[291, 611, 1189, 1829, 2661]",19.19495,14.0,2251.99000001885,-5.194949999999999,True,2,1,45,3,3,0,21.0,0.9351444100282712,49.35628836128819,56.09051179873147,-0.7988672487604394,0.0021413576852739274
7,6,390,4,1,True,"[74, 74, 74, 74]","[240, 621, 920, 1261]",74.79787,81.0,1600.8900001179427,6.202129999999997,True,2,1,46,3,3,0,21.0,0.9351444100282712,49.35628836128819,56.09051179873147,3.825201932680528,0.0018805450704825948
7,4,652,2,2,True,"[74, 74, 74, 74]","[280, 909, 1381, 2051]",37.72798,41.0,2871.084999991581,3.2720199999999977,True,2,1,47,3,3,0,21.0,0.9351444100282712,49.35628836128819,56.09051179873147,5.410586251760279,0.0006728090381892894
7,5,843,1,0,True,"[74, 74, 74, 74]","[259, 760, 1819, 2600]",19.19495,24.0,1816.690000006929,4.805050000000001,True,2,1,48,3,3,0,21.0,0.9351444100282712,49.35628836128819,56.09051179873147,9.20113275123956,0.0039720823139928665
7,7,463,4,2,True,"[74, 74, 74, 74]","[280, 659, 1109, 1691]",62.42097,64.0,3293.695000000298,1.579030000000003,True,2,1,49,3,3,0,21.0,0.9351444100282712,49.35628836128819,56.09051179873147,0.7097389412014792,1.225218148477286e-05
7,3,550,3,1,True,"[74, 74, 74, 74]","[291, 701, 1291, 1760]",50.0,50.0,1708.3900000434369,0.0,True,2,1,50,3,3,0,21.0,0.9351444100282712,49.35628836128819,56.09051179873147,0.6437116387118067,1.381751637162732e-05
7,2,302,5,1,True,"[74, 74, 74, 74]","[261, 600, 840, 1080]",93.24415,78.0,2473.509999923408,-15.244150000000005,True,2,1,51,3,3,0,21.0,0.9351444100282712,49.35628836128819,56.09051179873147,-19.86802235243246,0.06074719584384657
7,3,843,1,1,True,"[74, 74, 74, 74, 74]","[259, 651, 1120, 1851, 2589]",19.19495,9.0,2130.2199999336153,-10.194949999999999,True,2,1,52,3,3,0,21.0,0.9351444100282712,49.35628836128819,56.09051179873147,-5.798867248760439,0.01018574224072404
7,2,504,3,0,True,"[74, 74, 74, 74]","[709, 1120, 1611, 2051]",56.30039,70.0,2480.0900002010167,13.69961,True,2,1,53,3,3,0,21.0,0.9351444100282712,49.35628836128819,56.09051179873147,13.575864883316164,0.00865660727551511
7,3,774,2,1,True,"[74, 74, 74, 74, 74, 74]","[248, 640, 1120, 1688, 2419, 3139]",25.3549,18.0,2182.645000051707,-7.354900000000001,True,2,1,54,3,3,0,21.0,0.9351444100282712,49.35628836128819,56.09051179873147,-3.709165846386938,0.004202387370391186
7,7,504,3,0,True,"[74, 74, 74, 74, 74]","[40, 600, 979, 1499, 2008]",56.30039,50.0,1384.2199998907745,-6.30039,True,2,1,55,3,3,0,21.0,0.9351444100282712,49.35628836128819,56.09051179873147,-6.424135116683836,0.0026606237231547
7,2,843,1,0,True,"[74, 74, 74, 74, 74]","[269, 629, 1069, 1749, 2680]",19.19495,20.0,3546.909999800846,0.8050500000000014,True,2,1,56,3,3,0,21.0,0.9351444100282712,49.35628836128819,56.09051179873147,5.201132751239561,0.00037267346416622506
7,4,599,3,1,True,"[74, 74, 74, 74, 74]","[149, 640, 1229, 1819, 2389]",43.84378,50.0,890.0349999312311,6.156219999999998,True,2,1,57,3,3,0,21.0,0.9351444100282712,49.35628836128819,56.09051179873147,7.54982137330822,0.0018358052334541061
7,2,425,4,1,True,"[74, 74, 74, 74, 74]","[280, 669, 939, 1280, 1728]",68.59844,72.0,2162.5850000418723,3.4015600000000035,True,2,1,58,3,3,0,21.0,0.9351444100282712,49.35628836128819,56.09051179873147,1.779792541928927,0.0002892927424490488
7,6,504,3,2,True,"[74, 74, 74, 74, 74]","[259, 589, 1048, 1528, 2000]",56.30039,50.0,669.2850000690669,-6.30039,True,2,1,59,3,3,0,21.0,0.9351444100282712,49.35628836128819,56.09051179873147,-6.424135116683836,0.0026606237231547
7,7,1000,1,0,True,"[74, 74, 74, 74, 74]","[221, 629, 1261, 2181, 3131]",6.87518,50.0,40963.19999988191,43.12482,True,2,1,60,3,3,0,21.0,0.9351444100282712,49.35628836128819,56.09051179873147,49.02158041618039,0.38031493604574496
7,7,550,3,2,True,"[74, 74, 74, 74, 74]","[299, 709, 1120, 1619, 2139]",50.0,50.0,2657.9399998299778,0.0,True,2,2,61,3,3,0,21.0,0.9351444100282712,49.35628836128819,56.09051179873147,0.6437116387118067,1.381751637162732e-05
7,5,1000,1,2,True,"[74, 74, 74, 74, 74]","[301, 651, 1240, 2131, 3211]",6.87518,15.0,2885.0899999961257,8.12482,True,2,2,62,3,3,0,21.0,0.9351444100282712,49.35628836128819,56.09051179873147,14.021580416180393,0.01785599898686859
7,7,774,2,2,True,"[74, 74, 74, 74, 74]","[269, 661, 1189, 1749, 2411]",25.3549,7.0,4382.93999992311,-18.3549,True,2,2,63,3,3,0,21.0,0.9351444100282712,49.35628836128819,56.09051179873147,-14.709165846386938,0.029374740463143638
7,3,463,4,1,True,"[74, 74, 74, 74]","[280, 739, 1040, 1419]",62.42097,82.0,2849.08500011079,19.579030000000003,True,2,2,64,3,3,0,21.0,0.9351444100282712,49.35628836128819,56.09051179873147,18.70973894120148,0.020573237038923355
7,7,358,5,1,True,"[74, 74, 74, 74, 74]","[261, 629, 869, 1109, 1411]",80.9736,98.0,5535.920000169426,17.026399999999995,True,2,2,65,3,3,0,21.0,0.9351444100282712,49.35628836128819,56.09051179873147,13.897208366633905,0.02691468964648094
7,6,710,2,0,True,"[74, 74, 74, 74]","[269, 619, 1499, 2160]",31.58063,33.0,3543.5850000940263,1.4193700000000007,True,2,2,66,3,3,0,21.0,0.9351444100282712,49.35628836128819,56.09051179873147,4.30674978033834,0.000235290106061369
7,4,918,1,0,True,"[74, 74, 74, 74, 74, 74]","[349, 709, 1160, 1869, 2800, 3640]",13.04687,18.0,2637.4649999197572,4.95313,True,2,2,67,3,3,0,21.0,0.9351444100282712,49.35628836128819,56.09051179873147,10.098107478229867,0.005843335669900682
7,3,599,3,2,True,"[74, 74, 74, 74, 74]","[349, 749, 1211, 1800, 2440]",43.84378,38.0,5050.38999998942,-5.843780000000002,True,2,2,68,3,3,0,21.0,0.9351444100282712,49.35628836128819,56.09051179873147,-4.45017862669178,0.0019291093964306223
7,2,652,2,2,True,"[74, 74, 74, 74]","[269, 728, 1360, 1989]",37.72798,42.0,2826.619999948889,4.272019999999998,True,2,2,69,3,3,0,21.0,0.9351444100282712,49.35628836128819,56.09051179873147,6.410586251760279,0.0011364496236568166
7,3,1000,1,0,True,"[74, 74, 74, 74, 74]","[269, 669, 1280, 2080, 3128]",6.87518,29.0,2189.4400001037866,22.12482,True,2,2,70,3,3,0,21.0,0.9351444100282712,49.35628836128819,56.09051179873147,28.02158041618039,0.10683387871700373
7,2,550,3,1,True,"[74, 74, 74, 74, 74]","[221, 792, 1141, 1661, 2221]",50.0,41.0,3254.7450000420213,-9.0,True,2,2,71,3,3,0,21.0,0.9351444100282712,49.35628836128819,56.09051179873147,-8.356288361288193,0.004495848159262844
7,3,652,2,2,True,"[74, 74, 74, 74]","[309, 680, 1291, 1949]",37.72798,28.0,2723.794999998063,-9.727980000000002,True,2,2,72,3,3,0,21.0,0.9351444100282712,49.35628836128819,56.09051179873147,-7.589413748239721,0.005641003133185141
7,7,390,4,1,True,"[74, 74, 74, 74, 74]","[171, 600, 891, 1211, 1560]",74.79787,81.0,4511.479999870062,6.202129999999997,True,2,2,73,3,3,0,21.0,0.9351444100282712,49.35628836128819,56.09051179873147,3.825201932680528,0.0018805450704825948
7,4,302,5,2,True,"[74, 74, 74, 74, 74]","[269, 600, 781, 1000, 1240]",93.24415,100.0,4163.5300000198185,6.755849999999995,True,2,2,74,3,3,0,21.0,0.9351444100282712,49.35628836128819,56.09051179873147,2.1319776475675383,0.0032578715413775516
7,5,390,4,0,True,"[74, 74, 74, 74]","[328, 688, 1120, 1488]",74.79787,84.0,4233.819999964908,9.202129999999997,True,2,2,75,3,3,0,21.0,0.9351444100282712,49.35628836128819,56.09051179873147,6.825201932680528,0.005247170201871844
7,6,302,5,0,True,"[74, 74, 74, 74]","[280, 629, 851, 1149]",93.24415,100.0,3521.570000099018,6.755849999999995,True,2,2,76,3,3,0,21.0,0.9351444100282712,49.35628836128819,56.09051179873147,2.1319776475675383,0.0032578715413775516
7,2,1000,1,2,True,"[74, 74, 74]","[1024, 2000, 3139]",6.87518,26.0,20010.219999821857,19.12482,True,2,2,77,3,3,0,21.0,0.9351444100282712,49.35628836128819,56.09051179873147,25.02158041618039,0.08148083667250976
7,5,302,5,2,True,"[74, 74, 74, 74, 74]","[349, 608, 808, 1019, 1229]",93.24415,100.0,3113.175000064075,6.755849999999995,True,2,2,78,3,3,0,21.0,0.9351444100282712,49.35628836128819,56.09051179873147,2.1319776475675383,0.0032578715413775516
7,6,425,4,2,True,"[74, 74, 74, 74, 74]","[280, 629, 960, 1341, 1749]",68.59844,60.0,3643.320000031963,-8.598439999999997,True,2,2,79,3,3,0,21.0,0.9351444100282712,49.35628836128819,56.09051179873147,-10.220207458071073,0.00746175377637862
7,7,918,1,2,True,"[74, 74, 74, 74, 74]","[261, 581, 1051, 1971, 2880]",13.04687,21.0,5787.6899999100715,7.95313,True,2,2,80,3,3,0,21.0,0.9351444100282712,49.35628836128819,56.09051179873147,13.098107478229867,0.012850670645539197
7,3,358,5,0,True,"[74, 74, 74, 74]","[371, 680, 1000, 1381]",80.9736,77.0,2920.6799999810755,-3.9736000000000047,True,2,2,81,3,3,0,21.0,0.9351444100282712,49.35628836128819,56.09051179873147,-7.102791633366095,0.004305114460744636
7,6,599,3,1,True,"[74, 74, 74, 74, 74]","[309, 691, 1269, 1840, 2429]",43.84378,50.0,2736.3299999851733,6.156219999999998,True,2,2,82,3,3,0,21.0,0.9351444100282712,49.35628836128819,56.09051179873147,7.54982137330822,0.0018358052334541061
7,2,463,4,0,True,"[74, 74, 74, 74]","[61, 541, 1011, 1451]",62.42097,55.0,3573.0250000488013,-7.420969999999997,True,2,2,83,3,3,0,21.0,0.9351444100282712,49.35628836128819,56.09051179873147,-8.29026105879852,0.004417782499761388
7,5,652,2,0,True,"[74, 74, 74, 74, 74]","[301, 949, 1371, 1960, 2581]",37.72798,31.0,2367.599999997765,-6.727980000000002,True,2,2,84,3,3,0,21.0,0.9351444100282712,49.35628836128819,56.09051179873147,-4.589413748239721,0.002682048170701421
7,4,550,3,0,True,"[74, 74, 74, 74, 74]","[248, 659, 1200, 1680, 2248]",50.0,45.0,3459.8799999803305,-5.0,True,2,2,85,3,3,0,21.0,0.9351444100282712,49.35628836128819,56.09051179873147,-4.356288361288193,0.0015134191937411444
7,2,358,5,2,True,"[74, 74, 74, 74, 74]","[251, 611, 840, 1131, 1419]",80.9736,68.0,2854.0800001937896,-12.973600000000005,True,2,2,86,3,3,0,21.0,0.9351444100282712,49.35628836128819,56.09051179873147,-16.102791633366095,0.026910275643981168
7,5,504,3,1,True,"[74, 74, 74, 74, 74]","[331, 771, 1141, 1669, 2021]",56.30039,65.0,4807.405000086874,8.69961,True,2,2,87,3,3,0,21.0,0.9351444100282712,49.35628836128819,56.09051179873147,8.575864883316164,0.0032359440915689496
7,4,710,2,0,True,"[74, 74, 74, 74, 74]","[251, 560, 989, 1531, 2251]",31.58063,21.0,4270.1350001152605,-10.58063,True,2,2,88,3,3,0,21.0,0.9351444100282712,49.35628836128819,56.09051179873147,-7.69325021966166,0.007739040187037979
7,6,918,1,0,True,"[74, 74, 74, 74, 74]","[301, 691, 1181, 1931, 2851]",13.04687,13.0,2756.915000034496,-0.04687000000000019,True,2,2,89,3,3,0,21.0,0.9351444100282712,49.35628836128819,56.09051179873147,5.098107478229867,0.00022230532580821787
7,4,425,4,0,True,"[74, 74, 74, 74]","[640, 901, 1240, 1621]",68.59844,77.0,2026.5600001439452,8.401560000000003,True,2,2,90,3,3,0,21.0,0.9351444100282712,49.35628836128819,56.09051179873147,6.779792541928927,0.0036105432235179445
8,5,652,2,0,False,,,37.72798,50.0,1263.7950000353158,12.272019999999998,False,0,0,1,5,0,1,36.0,0.8962270064213289,49.314104451818295,61.988082109945736,15.900271857906802,0.008016752562282214
8,6,358,5,1,False,,,80.9736,100.0,3578.1800001859665,19.026399999999995,False,0,0,2,5,0,1,36.0,0.8962270064213289,49.314104451818295,61.988082109945736,12.28601241657914,0.015308602329623347
8,2,390,4,0,False,,,74.79787,100.0,1629.9250000156462,25.202129999999997,False,0,0,3,5,0,1,36.0,0.8962270064213289,49.314104451818295,61.988082109945736,19.94244164600518,0.024854485848946825
8,5,329,5,2,False,,,87.0672,100.0,1116.6150001809,12.9328,False,0,0,4,5,0,1,36.0,0.8962270064213289,49.314104451818295,61.988082109945736,4.731400654918971,0.006243735901942959
8,7,504,3,2,False,,,56.30039,50.0,897.7049998939037,-6.30039,False,0,0,5,5,0,1,36.0,0.8962270064213289,49.314104451818295,61.988082109945736,-7.125091568250475,0.0005984636506489064
8,5,1000,1,0,False,,,6.87518,0.0,5391.910000238568,-6.87518,False,0,0,6,5,0,1,36.0,0.8962270064213289,49.314104451818295,61.988082109945736,4.150397937509595,0.0006046508542833819
8,3,302,5,1,False,,,93.24415,100.0,3220.674999989569,6.755849999999995,False,0,0,7,5,0,1,36.0,0.8962270064213289,49.314104451818295,61.988082109945736,-2.926547153881586,0.00040985675916750864
8,5,599,3,2,False,,,43.84378,50.0,1809.9649995565414,6.156219999999998,False,0,0,8,5,0,1,36.0,0.8962270064213289,49.314104451818295,61.988082109945736,8.318139996665053,0.002285737355471997
8,3,425,4,2,False,,,68.59844,100.0,1630.2050002850592,31.401560000000003,False,0,0,9,5,0,1,36.0,0.8962270064213289,49.314104451818295,61.988082109945736,27.628264433182835,0.03349825163379843
8,4,652,2,2,False,,,37.72798,8.0,2721.909999847412,-29.727980000000002,False,0,0,10,5,0,1,36.0,0.8962270064213289,49.314104451818295,61.988082109945736,-26.0997281420932,0.01840817346000268
8,3,918,1,0,False,,,13.04687,14.0,2633.6799999698997,0.9531299999999998,False,0,0,11,5,0,1,36.0,0.8962270064213289,49.314104451818295,61.988082109945736,10.498964652257053,0.006374506831958318
8,2,774,2,2,False,,,25.3549,0.0,1877.8800000436604,-25.3549,False,0,0,12,5,0,1,36.0,0.8962270064213289,49.314104451818295,61.988082109945736,-18.76005804363082,0.015974481805337636
8,3,550,3,0,False,,,50.0,50.0,609.8599997349083,0.0,False,0,0,13,5,0,1,36.0,0.8962270064213289,49.314104451818295,61.988082109945736,0.6858955481817048,0.0001384913442002142
8,7,358,5,1,False,,,80.9736,100.0,1469.9099999852479,19.026399999999995,False,0,0,14,5,0,1,36.0,0.8962270064213289,49.314104451818295,61.988082109945736,12.28601241657914,0.015308602329623352
8,6,774,2,2,False,,,25.3549,0.0,1901.9849998876452,-25.3549,False,0,0,15,5,0,1,36.0,0.8962270064213289,49.314104451818295,61.988082109945736,-18.76005804363082,0.015974481805337636
8,4,329,5,1,False,,,87.0672,100.0,2050.245000049472,12.9328,False,0,0,16,5,0,1,36.0,0.8962270064213289,49.314104451818295,61.988082109945736,4.731400654918971,0.006243735901942959
