trial_type,trial_index,time_elapsed,internal_node_id,subject,tap_condition,code_version,tap_times,stimulus,key_press,event,button_pressed,response,experiment,valid_key_press,valid_tap_times,pref_rate,test_correct,test_incorrect,test_skipped,extreme_responses,pearsonr,intercept,slope
audio-multiple-response,17,108122,0.0-6.0,1,False,v1.1,"[875, 1232, 1621, 1957, 2293, 2661, 3013, 3376, 3765, 4133, 4469, 4811, 5141, 5488, 5840, 6213, 6560, 6907, 7248, 7584, 7957, 8315, 8651, 9008, 9349, 9675, 10061, 10421, 10805, 11125, 11461, 11787, 12139, 12523, 12864, 13221, 13573, 13931, 14283, 14597, 14981]",,"[74, 74, 74, 74, 74, 74, 74, 74, 74, 74, 74, 74, 74, 74, 74, 74, 74, 74, 74, 74, 74, 74, 74, 74, 74, 74, 74, 74, 74, 74, 74, 74, 74, 74, 74, 74, 74, 74, 74, 74, 74]",tapping_test,,,IT2,"[74 74 74 74 74 74 74 74 74 74 74 74 74 74 74 74 74 74 74 74 74 74 74 74
 74 74 74 74 74 74 74 74 74 74 74 74 74 74 74 74 74]","[  875  1232  1621  1957  2293  2661  3013  3376  3765  4133  4469  4811
  5141  5488  5840  6213  6560  6907  7248  7584  7957  8315  8651  9008
  9349  9675 10061 10421 10805 11125 11461 11787 12139 12523 12864 13221
 13573 13931 14283 14597 14981]",352.0,4,2,0,7.0,0.9169932084886164,48.940838660086015,44.636415557812505
audio-multiple-response,17,122559,0.0-6.0,2,True,v1.1,"[1184, 1782, 2392, 2990, 3587, 4214, 4812, 5404, 6020, 6600, 7192, 7784, 8487, 9056, 9665, 10234, 10850, 11430, 11976, 12643, 13224, 13857, 14420]",,"[74, 74, 74, 74, 74, 74, 74, 74, 74, 74, 74, 74, 74, 74, 74, 74, 74, 74, 74, 74, 74, 74, 74]",tapping_test,,,IT2,[74 74 74 74 74 74 74 74 74 74 74 74 74 74 74 74 74 74 74 74 74 74 74],"[ 1184  1782  2392  2990  3587  4214  4812  5404  6020  6600  7192  7784
  8487  9056  9665 10234 10850 11430 11976 12643 13224 13857 14420]",597.5,4,2,0,24.0,0.9353814937677025,48.76459200018065,55.57450017310499
audio-multiple-response,17,405639,0.0-6.0,4,True,v1.1,[807],,[32],tapping_test,,,IT2,[],[],,0,2,4,12.0,0.9338137988031935,51.68528360745418,55.40187053045635
audio-multiple-response,17,85483,0.0-6.0,5,True,v1.1,"[110, 551, 1033, 1817, 2339, 2769, 3117, 3460, 3860, 4278, 4603, 4957, 5300, 5579, 5915, 6235, 6519, 6844, 7204, 7541, 7819, 8115, 8400, 8678, 8969, 9305, 9613, 9845, 10037, 10507, 11000, 11331, 11604, 11842, 12016, 12341, 12643, 12899, 13084, 13241, 13404, 13630, 14153, 14350, 14588, 14791, 14983]",,"[74, 74, 74, 74, 74, 74, 74, 74, 74, 74, 74, 74, 74, 74, 74, 74, 74, 74, 74, 74, 74, 74, 74, 74, 74, 74, 74, 74, 74, 74, 74, 74, 74, 74, 74, 187, 74, 74, 74, 32, 74, 74, 74, 74, 74, 74, 74]",tapping_test,,,IT2,"[74 74 74 74 74 74 74 74 74 74 74 74 74 74 74 74 74 74 74 74 74 74 74 74
 74 74 74 74 74 74 74 74 74 74 74 74 74 74 74 74 74 74 74 74 74]","[  110   551  1033  1817  2339  2769  3117  3460  3860  4278  4603  4957
  5300  5579  5915  6235  6519  6844  7204  7541  7819  8115  8400  8678
  8969  9305  9613  9845 10037 10507 11000 11331 11604 11842 12016 12643
 12899 13084 13404 13630 14153 14350 14588 14791 14983]",322.5,3,3,0,45.0,0.5834746978973961,52.03526426107915,35.75099555073336
audio-multiple-response,17,126833,0.0-6.0,7,True,v1.1,"[579, 1419, 2349, 3379, 4189, 5091, 5971, 6859, 7629, 8440, 9331, 10171, 10891, 11619, 12400, 13211, 14019, 14749]",,"[74, 74, 74, 74, 74, 74, 74, 74, 74, 74, 74, 74, 74, 74, 74, 74, 74, 74]",tapping_test,,,IT2,[74 74 74 74 74 74 74 74 74 74 74 74 74 74 74 74 74 74],"[  579  1419  2349  3379  4189  5091  5971  6859  7629  8440  9331 10171
 10891 11619 12400 13211 14019 14749]",811.0,3,3,0,21.0,0.9351444100282712,49.35628836128819,56.09051179873147
audio-multiple-response,17,98870,0.0-6.0,8,False,v1.1,"[792, 2512, 3960, 5920, 6552, 6891, 9992, 10432, 10632, 11800, 12221, 12501, 13421, 13971, 14171, 14251, 14520]",,"[74, 74, 74, 74, 32, 74, 74, 74, 74, 13, 74, 13, 27, 74, 32, 17, 74]",tapping_test,,,IT2,[74 74 74 74 74 74 74 74 74 74 74],[  792  2512  3960  5920  6891  9992 10432 10632 12221 13971 14520],1518.5,5,0,1,36.0,0.8962270064213289,49.314104451818295,61.988082109945736
audio-multiple-response,17,89708,0.0-6.0,9,False,v1.1,"[2606, 11639, 12057, 13444]",,"[74, 32, 74, 13]",tapping_test,,,IT2,[74 74],[ 2606 12057],,2,4,0,38.0,0.8595231473063331,53.68263768284683,39.86354578695407
audio-multiple-response,17,89333,0.0-6.0,10,False,v1.1,"[469, 1640, 2029, 13509, 14019, 14171, 14459, 14619, 14760, 14899]",,"[32, 32, 32, 32, 32, 32, 32, 32, 32, 32]",tapping_test,,,IT2,[],[],,0,6,0,17.0,0.8622572909098105,46.920250068802744,33.916596092027504
audio-multiple-response,17,107097,0.0-6.0,12,True,v1.1,"[598, 1010, 1486, 1991, 2473, 2955, 3506, 4034, 4592, 5306, 5793, 6316, 6815, 7303, 7796, 8290, 8806, 9317, 9845, 10356, 10844, 11314, 11784, 12266, 12759, 13259, 13775, 14303, 14826]",,"[74, 74, 74, 74, 74, 74, 74, 74, 74, 74, 74, 74, 74, 74, 74, 74, 74, 74, 74, 74, 74, 74, 74, 74, 74, 74, 74, 74, 74]",tapping_test,,,IT2,"[74 74 74 74 74 74 74 74 74 74 74 74 74 74 74 74 74 74 74 74 74 74 74 74
 74 74 74 74 74]","[  598  1010  1486  1991  2473  2955  3506  4034  4592  5306  5793  6316
  6815  7303  7796  8290  8806  9317  9845 10356 10844 11314 11784 12266
 12759 13259 13775 14303 14826]",499.5,5,1,0,44.0,0.9364081111194877,50.9325229044948,61.72222642645463
audio-multiple-response,17,165697,0.0-6.0,13,True,v1.1,"[784, 1402, 2113, 2754, 3393, 4034, 4632, 5233, 5883, 6502, 7102, 7692, 8321, 8960, 9561, 10191, 10780, 11369, 11979, 12588, 13227, 13857, 14457]",,"[74, 74, 74, 74, 74, 74, 74, 74, 74, 74, 74, 74, 74, 74, 74, 74, 74, 74, 74, 74, 74, 74, 74]",tapping_test,,,IT2,[74 74 74 74 74 74 74 74 74 74 74 74 74 74 74 74 74 74 74 74 74 74 74],"[  784  1402  2113  2754  3393  4034  4632  5233  5883  6502  7102  7692
  8321  8960  9561 10191 10780 11369 11979 12588 13227 13857 14457]",618.5,6,0,0,32.0,0.921860689434581,48.5999747386022,52.203716010845866
audio-multiple-response,17,121448,0.0-6.0,15,True,v1.1,"[479, 720, 961, 1190, 1469, 1739, 2020, 2278, 2548, 2839, 3088, 3329, 3590, 3840, 4139, 4441, 4638, 4899, 5169, 5431, 5709, 5939, 6261, 6568, 6920, 7189, 7439, 7709, 7959, 8171, 8409, 8658, 8899, 9140, 9390, 9619, 9868, 10089, 10318, 10580, 10841, 11059, 11308, 11549, 11799, 12060, 12301, 12571, 12809, 13050, 13291, 13569, 13868, 14109, 14338, 14579, 14861]",,"[74, 74, 74, 74, 74, 74, 74, 74, 74, 74, 74, 74, 74, 74, 74, 74, 74, 74, 74, 74, 74, 74, 74, 74, 74, 74, 74, 74, 74, 74, 74, 74, 74, 74, 74, 74, 74, 74, 74, 74, 74, 74, 74, 74, 74, 74, 74, 74, 74, 74, 74, 74, 74, 74, 74, 74, 74]",tapping_test,,,IT2,"[74 74 74 74 74 74 74 74 74 74 74 74 74 74 74 74 74 74 74 74 74 74 74 74
 74 74 74 74 74 74 74 74 74 74 74 74 74 74 74 74 74 74 74 74 74 74 74 74
 74 74 74 74 74 74 74 74 74]","[  479   720   961  1190  1469  1739  2020  2278  2548  2839  3088  3329
  3590  3840  4139  4441  4638  4899  5169  5431  5709  5939  6261  6568
  6920  7189  7439  7709  7959  8171  8409  8658  8899  9140  9390  9619
  9868 10089 10318 10580 10841 11059 11308 11549 11799 12060 12301 12571
 12809 13050 13291 13569 13868 14109 14338 14579 14861]",250.0,6,0,0,38.0,0.9117217724418987,49.73610256849345,61.32298505968311
audio-multiple-response,17,110925,0.0-6.0,14,False,v1.1,"[380, 621, 879, 1149, 1399, 1631, 1852, 2069, 2290, 2519, 2752, 3010, 3260, 3529, 3750, 3991, 4241, 4481, 4719, 4989, 5230, 5471, 5709, 5950, 6200, 6441, 6682, 6911, 7152, 7401, 7631, 7880, 8141, 8391, 8629, 8861, 9099, 9320, 9549, 9770, 9999, 10240, 10461, 10701, 10940, 11189, 11430, 11659, 11912, 12161, 12411, 12649, 12881, 13102, 13351, 13581, 13830, 14019, 14260, 14472, 14721, 14959]",,"[74, 74, 74, 74, 74, 74, 74, 74, 74, 74, 74, 74, 74, 74, 74, 74, 74, 74, 74, 74, 74, 74, 74, 74, 74, 74, 74, 74, 74, 74, 74, 74, 74, 74, 74, 74, 74, 74, 74, 74, 74, 74, 74, 74, 74, 74, 74, 74, 74, 74, 74, 74, 74, 74, 74, 74, 74, 74, 74, 74, 74, 74]",tapping_test,,,IT2,"[74 74 74 74 74 74 74 74 74 74 74 74 74 74 74 74 74 74 74 74 74 74 74 74
 74 74 74 74 74 74 74 74 74 74 74 74 74 74 74 74 74 74 74 74 74 74 74 74
 74 74 74 74 74 74 74 74 74 74 74 74 74 74]","[  380   621   879  1149  1399  1631  1852  2069  2290  2519  2752  3010
  3260  3529  3750  3991  4241  4481  4719  4989  5230  5471  5709  5950
  6200  6441  6682  6911  7152  7401  7631  7880  8141  8391  8629  8861
  9099  9320  9549  9770  9999 10240 10461 10701 10940 11189 11430 11659
 11912 12161 12411 12649 12881 13102 13351 13581 13830 14019 14260 14472
 14721 14959]",241.0,2,2,2,15.0,0.9388533830167276,51.95048931360497,49.31290785030931
audio-multiple-response,17,93799,0.0-6.0,16,False,v1.1,"[541, 1171, 1891, 2560, 3221, 3920, 4592, 5272, 5960, 6661, 7341, 8021, 8712, 9392, 10091, 10741, 11432, 12120, 12781, 13440, 14080, 14741]",,"[70, 70, 70, 70, 70, 70, 70, 70, 70, 70, 70, 70, 70, 70, 70, 70, 70, 70, 70, 70, 70, 70]",tapping_test,,,IT2,[70 70 70 70 70 70 70 70 70 70 70 70 70 70 70 70 70 70 70 70 70 70],"[  541  1171  1891  2560  3221  3920  4592  5272  5960  6661  7341  8021
  8712  9392 10091 10741 11432 12120 12781 13440 14080 14741]",680.0,6,0,0,13.0,0.9406901382933758,50.33268290191744,52.40950889946413
audio-multiple-response,17,871143,0.0-6.0,17,False,v1.1,"[1811, 2218, 2624, 3129, 3593, 3913, 4232, 4557, 4899, 5195, 5486, 5747, 6066, 6374, 6670, 6972, 7256, 7552, 7877, 8156, 8452, 8737, 9062, 9369, 9654, 9909, 10159, 10397, 10664, 11024, 11320, 11587, 11860, 12127, 12394, 12620, 12893, 13183, 13462, 13735, 14025, 14280, 14594, 14878]",,"[74, 74, 74, 74, 74, 74, 74, 74, 74, 74, 74, 74, 74, 74, 74, 74, 74, 74, 74, 74, 74, 74, 74, 74, 74, 74, 74, 74, 74, 74, 74, 74, 74, 74, 74, 74, 74, 74, 74, 74, 74, 74, 74, 74]",tapping_test,,,IT2,"[74 74 74 74 74 74 74 74 74 74 74 74 74 74 74 74 74 74 74 74 74 74 74 74
 74 74 74 74 74 74 74 74 74 74 74 74 74 74 74 74 74 74 74 74]","[ 1811  2218  2624  3129  3593  3913  4232  4557  4899  5195  5486  5747
  6066  6374  6670  6972  7256  7552  7877  8156  8452  8737  9062  9369
  9654  9909 10159 10397 10664 11024 11320 11587 11860 12127 12394 12620
 12893 13183 13462 13735 14025 14280 14594 14878]",291.0,3,1,2,33.0,0.8256106223247784,52.33685370724238,54.345604907012245
audio-multiple-response,17,91908,0.0-6.0,19,False,v1.1,"[421, 869, 1216, 1520, 1840, 2149, 2384, 2512, 2747, 2928, 3104, 3269, 3552, 3824, 4053, 4277, 4485, 4709, 4960, 5173, 5392, 5595, 5947, 6187, 6368, 6592, 6795, 7008, 7216, 7429, 7589, 7851, 8080, 8288, 8544, 8779, 9093, 9547, 9941, 10213, 10443, 10800, 11013, 11259, 11493, 11872, 12107, 12357, 12581, 12821, 13035, 13248, 13493, 13749, 14064, 14256, 14496, 14725, 14955]",,"[74, 74, 74, 74, 74, 74, 74, 74, 74, 74, 74, 74, 74, 74, 74, 74, 74, 74, 74, 74, 74, 74, 74, 74, 74, 74, 74, 74, 74, 74, 74, 74, 74, 74, 74, 74, 74, 74, 74, 74, 74, 74, 74, 74, 74, 74, 74, 74, 74, 74, 74, 74, 74, 74, 74, 74, 74, 74, 74]",tapping_test,,,IT2,"[74 74 74 74 74 74 74 74 74 74 74 74 74 74 74 74 74 74 74 74 74 74 74 74
 74 74 74 74 74 74 74 74 74 74 74 74 74 74 74 74 74 74 74 74 74 74 74 74
 74 74 74 74 74 74 74 74 74 74 74]","[  421   869  1216  1520  1840  2149  2384  2512  2747  2928  3104  3269
  3552  3824  4053  4277  4485  4709  4960  5173  5392  5595  5947  6187
  6368  6592  6795  7008  7216  7429  7589  7851  8080  8288  8544  8779
  9093  9547  9941 10213 10443 10800 11013 11259 11493 11872 12107 12357
 12581 12821 13035 13248 13493 13749 14064 14256 14496 14725 14955]",234.5,6,0,0,29.0,0.9134566346329671,48.00100206801071,37.45336428534833
audio-multiple-response,17,212662,0.0-6.0,21,False,v1.1,"[598, 1126, 1707, 2247, 2949, 3454, 4093, 4737, 5306, 5846, 6415, 6966, 7529, 8127, 8731, 9294, 9857, 10495, 11082, 11773, 12336, 12939, 13508, 14071, 14623]",,"[74, 74, 74, 74, 74, 74, 74, 74, 74, 74, 74, 74, 74, 74, 74, 74, 74, 74, 74, 74, 74, 74, 74, 74, 74]",tapping_test,,,IT2,"[74 74 74 74 74 74 74 74 74 74 74 74 74 74 74 74 74 74 74 74 74 74 74 74
 74]","[  598  1126  1707  2247  2949  3454  4093  4737  5306  5846  6415  6966
  7529  8127  8731  9294  9857 10495 11082 11773 12336 12939 13508 14071
 14623]",569.0,6,0,0,8.0,0.925564728859168,50.380863779674,43.36742880110214
audio-multiple-response,17,84739,0.0-6.0,22,False,v1.1,"[405, 2107, 3131, 3669, 4144, 4629, 5088, 5552, 6043, 6501, 6992, 8021, 8453, 8912, 9675, 11899, 12917, 13739, 14437, 14619, 14800, 14976]",,"[74, 74, 74, 74, 74, 74, 74, 74, 74, 74, 74, 74, 74, 74, 74, 74, 74, 74, 74, 74, 74, 74]",tapping_test,,,IT2,[74 74 74 74 74 74 74 74 74 74 74 74 74 74 74 74 74 74 74 74 74 74],"[  405  2107  3131  3669  4144  4629  5088  5552  6043  6501  6992  8021
  8453  8912  9675 11899 12917 13739 14437 14619 14800 14976]",491.0,6,0,0,90.0,0.9244037150788775,47.674772400286166,75.2281051361615
audio-multiple-response,17,153128,0.0-6.0,23,True,v1.1,"[911, 1376, 1921, 2421, 2937, 3489, 4000, 4522, 5056, 5567, 6084, 6647, 7175, 7709, 8208, 8725, 9201, 9677, 10037, 10588, 11105, 11674, 12156, 12701, 13206, 13764, 14303, 14820]",,"[74, 74, 74, 74, 74, 74, 74, 74, 74, 74, 74, 74, 74, 74, 74, 74, 74, 74, 74, 74, 74, 74, 74, 74, 74, 74, 74, 74]",tapping_test,,,IT2,"[74 74 74 74 74 74 74 74 74 74 74 74 74 74 74 74 74 74 74 74 74 74 74 74
 74 74 74 74]","[  911  1376  1921  2421  2937  3489  4000  4522  5056  5567  6084  6647
  7175  7709  8208  8725  9201  9677 10037 10588 11105 11674 12156 12701
 13206 13764 14303 14820]",517.0,6,0,0,62.0,0.9355877313641875,50.92392566359929,67.31882240713492
audio-multiple-response,17,138560,0.0-6.0,27,True,v1.1,"[693, 869, 1013, 1152, 1301, 1456, 1600, 1765, 2069, 2229, 2389, 2533, 2699, 2859, 3024, 3195, 3344, 3493, 3653, 3813, 3957, 4112, 4277, 4427, 4581, 4757, 4928, 5115, 5285, 5451, 5627, 5819, 5995, 6176, 6341, 6523, 6672, 6853, 7056, 7243, 7419, 7611, 7803, 7989, 8144, 8304, 8480, 8656, 8837, 9019, 9205, 9376, 9541, 9717, 9904, 10091, 10352, 10603, 10795, 10981, 11163, 11429, 11627, 11829, 11984, 12165, 12315, 12512, 12688, 12848, 13019, 13195, 13376, 13541, 13680, 13840, 14005, 14165, 14299, 14443, 14624, 14800, 14928]",,"[74, 74, 74, 74, 74, 74, 74, 74, 74, 74, 74, 74, 74, 74, 74, 74, 74, 74, 74, 74, 74, 74, 74, 74, 74, 74, 74, 74, 74, 74, 74, 74, 74, 74, 74, 74, 74, 74, 74, 74, 74, 74, 74, 74, 74, 74, 74, 74, 74, 74, 74, 74, 74, 74, 74, 74, 74, 74, 74, 74, 74, 74, 74, 74, 74, 74, 74, 74, 74, 74, 74, 74, 74, 74, 74, 74, 74, 74, 74, 74, 74, 74, 74]",tapping_test,,,IT2,"[74 74 74 74 74 74 74 74 74 74 74 74 74 74 74 74 74 74 74 74 74 74 74 74
 74 74 74 74 74 74 74 74 74 74 74 74 74 74 74 74 74 74 74 74 74 74 74 74
 74 74 74 74 74 74 74 74 74 74 74 74 74 74 74 74 74 74 74 74 74 74 74 74
 74 74 74 74 74 74 74 74 74 74 74]","[  693   869  1013  1152  1301  1456  1600  1765  2069  2229  2389  2533
  2699  2859  3024  3195  3344  3493  3653  3813  3957  4112  4277  4427
  4581  4757  4928  5115  5285  5451  5627  5819  5995  6176  6341  6523
  6672  6853  7056  7243  7419  7611  7803  7989  8144  8304  8480  8656
  8837  9019  9205  9376  9541  9717  9904 10091 10352 10603 10795 10981
 11163 11429 11627 11829 11984 12165 12315 12512 12688 12848 13019 13195
 13376 13541 13680 13840 14005 14165 14299 14443 14624 14800 14928]",171.0,6,0,0,51.0,0.8910064777022435,55.51008539913853,60.57242745459796
audio-multiple-response,17,187435,0.0-6.0,25,False,v1.1,"[411, 576, 688, 827, 976, 1120, 1248, 1403, 1525, 1659, 1797, 2069, 2203, 2341, 2475, 2624, 2779, 2928, 3056, 3200, 3344, 3483, 3637, 3776, 3915, 4064, 4208, 4352, 4635, 4917, 5077, 5227, 5371, 5515, 5659, 5803, 5947, 6107, 6251, 6405, 6544, 6704, 6848, 6981, 7131, 7419, 7568, 7717, 7872, 8000, 8144, 8288, 8432, 8581, 8731, 8885, 9024, 9163, 9323, 9472, 9611, 9776, 9915, 10048, 10197, 10341, 10491, 10640, 10773, 10901, 11045, 11189, 11323, 11488, 11616, 11765, 11915, 12080, 12213, 12373, 12512, 12661, 12811, 12960, 13120, 13269, 13429, 13579, 13712, 13861, 14016, 14160, 14299, 14453, 14603, 14763, 14907]",,"[74, 74, 74, 74, 74, 74, 74, 74, 74, 74, 74, 74, 74, 74, 74, 74, 74, 74, 74, 74, 74, 74, 74, 74, 74, 74, 74, 74, 74, 74, 74, 74, 74, 74, 74, 74, 74, 74, 74, 74, 74, 74, 74, 74, 74, 74, 74, 74, 74, 74, 74, 74, 74, 74, 74, 74, 74, 74, 74, 74, 74, 74, 74, 74, 74, 74, 74, 74, 74, 74, 74, 74, 74, 74, 74, 74, 74, 74, 74, 74, 74, 74, 74, 74, 74, 74, 74, 74, 74, 74, 74, 74, 74, 74, 74, 74, 74]",tapping_test,,,IT2,"[74 74 74 74 74 74 74 74 74 74 74 74 74 74 74 74 74 74 74 74 74 74 74 74
 74 74 74 74 74 74 74 74 74 74 74 74 74 74 74 74 74 74 74 74 74 74 74 74
 74 74 74 74 74 74 74 74 74 74 74 74 74 74 74 74 74 74 74 74 74 74 74 74
 74 74 74 74 74 74 74 74 74 74 74 74 74 74 74 74 74 74 74 74 74 74 74 74
 74]","[  411   576   688   827   976  1120  1248  1403  1525  1659  1797  2069
  2203  2341  2475  2624  2779  2928  3056  3200  3344  3483  3637  3776
  3915  4064  4208  4352  4635  4917  5077  5227  5371  5515  5659  5803
  5947  6107  6251  6405  6544  6704  6848  6981  7131  7419  7568  7717
  7872  8000  8144  8288  8432  8581  8731  8885  9024  9163  9323  9472
  9611  9776  9915 10048 10197 10341 10491 10640 10773 10901 11045 11189
 11323 11488 11616 11765 11915 12080 12213 12373 12512 12661 12811 12960
 13120 13269 13429 13579 13712 13861 14016 14160 14299 14453 14603 14763
 14907]",144.0,6,0,0,42.0,0.9015849854868647,49.20513858087864,56.228288427331016
audio-multiple-response,17,216962,0.0-6.0,28,False,v1.1,"[633, 1155, 1649, 2247, 2810, 3413, 3994, 4563, 5161, 5706, 6310, 6891, 7454, 7947, 8539, 9172, 9770, 10414, 10983, 11569, 12138, 12696, 13230, 13868, 14472]",,"[74, 74, 74, 74, 74, 74, 74, 74, 74, 74, 74, 74, 74, 74, 74, 74, 74, 74, 74, 74, 74, 74, 74, 74, 74]",tapping_test,,,IT2,"[74 74 74 74 74 74 74 74 74 74 74 74 74 74 74 74 74 74 74 74 74 74 74 74
 74]","[  633  1155  1649  2247  2810  3413  3994  4563  5161  5706  6310  6891
  7454  7947  8539  9172  9770 10414 10983 11569 12138 12696 13230 13868
 14472]",581.0,5,0,1,21.0,0.9586858740146272,53.332075187841426,40.742567973871594
audio-multiple-response,17,89007,0.0-6.0,29,True,v1.1,"[579, 1360, 2851, 3659, 4419, 5131, 5811, 6499, 7179, 7859, 8611, 9320, 9949, 10651, 11331, 12091, 12509, 12699, 13229, 13899, 14571]",,"[70, 70, 70, 70, 70, 70, 70, 70, 70, 70, 70, 70, 70, 70, 70, 74, 74, 70, 70, 70, 70]",tapping_test,,,IT2,[70 70 70 70 70 70 70 70 70 70 70 70 70 70 70 74 74 70 70 70 70],"[  579  1360  2851  3659  4419  5131  5811  6499  7179  7859  8611  9320
  9949 10651 11331 12091 12509 12699 13229 13899 14571]",684.0,5,1,0,4.0,0.8662567901022726,53.62699608129034,37.201673220483144
audio-multiple-response,17,92901,0.0-6.0,30,True,v1.1,"[1620, 4534, 5114, 5706, 6374, 6920, 7465, 8063, 8626, 9143, 9648, 10136, 10635, 11192, 11773, 12341, 12875, 13380, 13944, 14454, 14983]",,"[74, 74, 74, 74, 74, 74, 74, 74, 74, 74, 74, 74, 74, 74, 74, 74, 74, 74, 74, 74, 74]",tapping_test,,,IT2,[74 74 74 74 74 74 74 74 74 74 74 74 74 74 74 74 74 74 74 74 74],"[ 1620  4534  5114  5706  6374  6920  7465  8063  8626  9143  9648 10136
 10635 11192 11773 12341 12875 13380 13944 14454 14983]",551.5,5,0,1,59.0,0.8076876976704112,47.18830142301857,61.0031133514387
audio-multiple-response,17,221726,0.0-6.0,31,False,v1.1,"[109, 1229, 2331, 3360, 4429, 5440, 6549, 7600, 8600, 9629, 10680, 11680, 12509, 13469, 14341]",,"[74, 74, 74, 74, 74, 74, 74, 74, 74, 74, 74, 74, 74, 74, 74]",tapping_test,,,IT2,[74 74 74 74 74 74 74 74 74 74 74 74 74 74 74],"[  109  1229  2331  3360  4429  5440  6549  7600  8600  9629 10680 11680
 12509 13469 14341]",1029.0,4,2,0,30.0,0.8456665460375659,50.742388950468225,43.87865363331904
audio-multiple-response,17,399480,0.0-6.0,32,True,v1.1,"[800, 1440, 2429, 3040, 3539, 4069, 4589, 5099, 5611, 6080, 6499, 6989, 7451, 7909, 8331, 8771, 9171, 9739, 10259, 10749, 11200, 11611, 12019, 12491, 12939, 13429, 13789, 14269]",,"[74, 74, 74, 74, 74, 74, 74, 74, 74, 74, 74, 74, 74, 74, 74, 74, 74, 74, 74, 74, 74, 74, 74, 74, 74, 74, 74, 74]",tapping_test,,,IT2,"[74 74 74 74 74 74 74 74 74 74 74 74 74 74 74 74 74 74 74 74 74 74 74 74
 74 74 74 74]","[  800  1440  2429  3040  3539  4069  4589  5099  5611  6080  6499  6989
  7451  7909  8331  8771  9171  9739 10259 10749 11200 11611 12019 12491
 12939 13429 13789 14269]",480.0,4,1,1,40.0,0.8498088604864389,48.373052772859985,50.6044883862833
audio-multiple-response,17,167567,0.0-6.0,34,True,v1.1,"[1029, 1741, 2309, 2920, 3509, 4051, 4651, 5240, 5829, 6400, 6949, 7531, 8120, 8661, 9269, 9840, 10389, 10960, 11549, 12109, 12669, 13261, 13880, 14400, 15000]",,"[74, 74, 74, 74, 74, 74, 74, 74, 74, 74, 74, 74, 74, 74, 74, 74, 74, 74, 74, 74, 74, 74, 74, 74, 74]",tapping_test,,,IT2,"[74 74 74 74 74 74 74 74 74 74 74 74 74 74 74 74 74 74 74 74 74 74 74 74
 74]","[ 1029  1741  2309  2920  3509  4051  4651  5240  5829  6400  6949  7531
  8120  8661  9269  9840 10389 10960 11549 12109 12669 13261 13880 14400
 15000]",585.5,5,0,1,21.0,0.9337109490382676,52.17996305905816,49.07784768732621
audio-multiple-response,17,117916,0.0-6.0,39,True,v1.1,"[4882, 11709]",,"[74, 32]",tapping_test,,,IT2,[74],[4882],,6,0,0,35.0,0.8269324507777651,53.418651713979486,38.140857223805114
audio-multiple-response,17,82317,0.0-6.0,40,True,v1.1,"[4048, 6384, 6912, 7328, 8704, 8960, 9376, 9632, 10016, 10240, 10448, 10480, 11008, 11472, 13936]",,"[32, 32, 70, 70, 32, 32, 70, 70, 32, 70, 70, 32, 32, 32, 70]",tapping_test,,,IT2,[70 70 70 70 70 70 70],[ 6912  7328  9376  9632 10240 10448 13936],512.0,0,6,0,17.0,0.9422834504726383,48.69414537617372,48.39562573928036
audio-multiple-response,17,146119,0.0-6.0,41,False,v1.1,"[725, 1360, 1989, 2581, 3232, 3845, 4469, 5056, 5653, 6208, 6837, 7408, 8053, 8651, 9216, 9803, 10421, 11200, 11781, 12320, 12859, 13424, 13979, 14523]",,"[70, 70, 70, 70, 70, 70, 70, 70, 70, 70, 70, 70, 70, 70, 70, 70, 70, 70, 70, 70, 70, 70, 70, 70]",tapping_test,,,IT2,[70 70 70 70 70 70 70 70 70 70 70 70 70 70 70 70 70 70 70 70 70 70 70 70],"[  725  1360  1989  2581  3232  3845  4469  5056  5653  6208  6837  7408
  8053  8651  9216  9803 10421 11200 11781 12320 12859 13424 13979 14523]",592.0,6,0,0,6.0,0.9069506358794714,48.08546348313544,45.90571693882322
audio-multiple-response,17,302472,0.0-6.0,42,False,v1.1,"[1851, 4501, 6171, 7789, 9349, 10869, 13011, 14589]",,"[74, 74, 74, 74, 74, 74, 74, 74]",tapping_test,,,IT2,[74 74 74 74 74 74 74 74],[ 1851  4501  6171  7789  9349 10869 13011 14589],1618.0,6,0,0,14.0,0.9308738600778573,49.35564870294206,58.11896974718626
audio-multiple-response,17,159554,0.0-6.0,43,False,v1.1,"[453, 1312, 2125, 2955, 3825, 4685, 5492, 6287, 7158, 7982, 8812, 9625, 10408, 11227, 12045, 12817, 13572, 14408]",,"[70, 70, 70, 70, 70, 70, 70, 70, 70, 70, 70, 70, 70, 70, 70, 70, 70, 70]",tapping_test,,,IT2,[70 70 70 70 70 70 70 70 70 70 70 70 70 70 70 70 70 70],"[  453  1312  2125  2955  3825  4685  5492  6287  7158  7982  8812  9625
 10408 11227 12045 12817 13572 14408]",819.0,6,0,0,10.0,0.9125415685796182,50.28285523730278,36.88197049413586
audio-multiple-response,17,432001,0.0-6.0,44,False,v1.1,"[743, 935, 1144, 1329, 1521, 1718, 1921, 2119, 2310, 2531, 2705, 2926, 3117, 3309, 3518, 3733, 3930, 4139, 4348, 4563, 4783, 5010, 5219, 5445, 5654, 5851, 6043, 6269, 6444, 6653, 6879, 7076, 7279, 7483, 7686, 7872, 8063, 8295, 8499, 8696, 8905, 9120, 9358, 9526, 9747, 9932, 10136, 10350, 10559, 10768, 10989, 11204, 11418, 11610, 11807, 12022, 12237, 12452, 12666, 12875, 13067, 13282, 13497, 13717, 13926, 14100, 14286, 14478, 14687, 14884]",,"[74, 74, 74, 74, 74, 74, 74, 74, 74, 74, 74, 74, 74, 74, 74, 74, 74, 74, 74, 74, 74, 74, 74, 74, 74, 74, 74, 74, 74, 74, 74, 74, 74, 74, 74, 74, 74, 74, 74, 74, 74, 74, 74, 74, 74, 74, 74, 74, 74, 74, 74, 74, 74, 74, 74, 74, 74, 74, 74, 74, 74, 74, 74, 74, 74, 74, 74, 74, 74, 74]",tapping_test,,,IT2,"[74 74 74 74 74 74 74 74 74 74 74 74 74 74 74 74 74 74 74 74 74 74 74 74
 74 74 74 74 74 74 74 74 74 74 74 74 74 74 74 74 74 74 74 74 74 74 74 74
 74 74 74 74 74 74 74 74 74 74 74 74 74 74 74 74 74 74 74 74 74 74]","[  743   935  1144  1329  1521  1718  1921  2119  2310  2531  2705  2926
  3117  3309  3518  3733  3930  4139  4348  4563  4783  5010  5219  5445
  5654  5851  6043  6269  6444  6653  6879  7076  7279  7483  7686  7872
  8063  8295  8499  8696  8905  9120  9358  9526  9747  9932 10136 10350
 10559 10768 10989 11204 11418 11610 11807 12022 12237 12452 12666 12875
 13067 13282 13497 13717 13926 14100 14286 14478 14687 14884]",209.0,5,0,1,15.0,0.9199364502248515,44.21434357425121,45.37780862124186
audio-multiple-response,17,113656,0.0-6.0,45,True,v1.1,"[1683, 5898, 8284, 10437, 13195]",,"[74, 74, 74, 74, 74]",tapping_test,,,IT2,[74 74 74 74 74],[ 1683  5898  8284 10437 13195],2572.0,4,2,0,21.0,0.86631841877494,47.19382307501603,44.645285614320045
audio-multiple-response,17,110028,0.0-6.0,46,True,v1.1,"[935, 3640, 3982, 4220, 4667, 6293, 9294, 9468, 14913]",,"[32, 32, 32, 32, 32, 187, 32, 32, 32]",tapping_test,,,IT2,[],[],,1,5,0,69.0,0.84055512786123,51.86438911922447,54.878505837612565
audio-multiple-response,17,88673,0.0-6.0,49,True,v1.1,"[619, 789, 968, 1120, 1349, 1848, 2248, 2728, 3229, 3688, 3880, 4099, 4509, 7779, 7968, 8128, 8299, 8459, 8629, 8800, 8989, 9168, 9349, 11000, 13669]",,"[74, 74, 74, 74, 74, 74, 74, 74, 74, 74, 74, 74, 74, 175, 175, 175, 175, 175, 175, 175, 175, 175, 175, 175, 174]",tapping_test,,,IT2,[74 74 74 74 74 74 74 74 74 74 74 74 74],[ 619  789  968 1120 1349 1848 2248 2728 3229 3688 3880 4099 4509],314.5,2,4,0,74.0,0.46514769744631856,50.139176096616026,7.362102375781824
audio-multiple-response,17,87758,0.0-6.0,50,True,v1.1,"[226, 395, 551, 714, 865, 1579, 2792, 2978, 3146, 3309, 3477, 3640, 3808, 3971, 4156, 4354, 4516, 4690, 4876, 5045, 5224, 5410, 5573, 5747, 5909, 6095, 6304, 6484, 6693, 6896, 7105, 7291, 7500, 7709, 7901, 8081, 8290, 8487, 8690, 8893, 9062, 9259, 9445, 9671, 9880, 10077, 10275, 10437, 10635, 10809, 11000, 11215, 11389, 11564, 11755, 11929, 12127, 12307, 12510, 12690, 12881, 13067, 13270, 13456, 13648, 13839, 14042, 14240, 14443, 14634, 14826]",,"[74, 74, 74, 74, 74, 74, 74, 74, 74, 74, 74, 74, 74, 74, 74, 74, 74, 74, 74, 74, 74, 74, 74, 74, 74, 74, 74, 74, 74, 74, 74, 74, 74, 74, 74, 74, 74, 74, 74, 74, 74, 74, 74, 74, 74, 74, 74, 74, 74, 74, 74, 74, 74, 74, 74, 74, 74, 74, 74, 74, 74, 74, 74, 74, 74, 74, 74, 74, 74, 74, 74]",tapping_test,,,IT2,"[74 74 74 74 74 74 74 74 74 74 74 74 74 74 74 74 74 74 74 74 74 74 74 74
 74 74 74 74 74 74 74 74 74 74 74 74 74 74 74 74 74 74 74 74 74 74 74 74
 74 74 74 74 74 74 74 74 74 74 74 74 74 74 74 74 74 74 74 74 74 74 74]","[  226   395   551   714   865  1579  2792  2978  3146  3309  3477  3640
  3808  3971  4156  4354  4516  4690  4876  5045  5224  5410  5573  5747
  5909  6095  6304  6484  6693  6896  7105  7291  7500  7709  7901  8081
  8290  8487  8690  8893  9062  9259  9445  9671  9880 10077 10275 10437
 10635 10809 11000 11215 11389 11564 11755 11929 12127 12307 12510 12690
 12881 13067 13270 13456 13648 13839 14042 14240 14443 14634 14826]",186.0,6,0,0,57.0,-0.0341556054154577,52.8057780941469,-1.7951073311659176
audio-multiple-response,17,153474,0.0-6.0,51,False,v1.1,"[432, 571, 752, 920, 1101, 1291, 1461, 1632, 1811, 1992, 2152, 2331, 2491, 2672, 2832, 3021, 3181, 3371, 3531, 3712, 3891, 4061, 4240, 4400, 4581, 4752, 4920, 5091, 5272, 5451, 5621, 5800, 5992, 6171, 6291, 6512, 6672, 6840, 7011, 7192, 7381, 7560, 7752, 7920, 8112, 8291, 8472, 8640, 8811, 9000, 9160, 9331, 9501, 9680, 9851, 10032, 10221, 10392, 10571, 10752, 10920, 11091, 11280, 11461, 11632, 11821, 12000, 12171, 12360, 12541, 12720, 12901, 13080, 13251, 13421, 13611, 13792, 13960, 14131, 14301, 14480, 14661, 14851]",,"[74, 74, 74, 74, 74, 74, 74, 74, 74, 74, 74, 74, 74, 74, 74, 74, 74, 74, 74, 74, 74, 74, 74, 74, 74, 74, 74, 74, 74, 74, 74, 74, 74, 74, 74, 74, 74, 74, 74, 74, 74, 74, 74, 74, 74, 74, 74, 74, 74, 74, 74, 74, 74, 74, 74, 74, 74, 74, 74, 74, 74, 74, 74, 74, 74, 74, 74, 74, 74, 74, 74, 74, 74, 74, 74, 74, 74, 74, 74, 74, 74, 74, 74]",tapping_test,,,IT2,"[74 74 74 74 74 74 74 74 74 74 74 74 74 74 74 74 74 74 74 74 74 74 74 74
 74 74 74 74 74 74 74 74 74 74 74 74 74 74 74 74 74 74 74 74 74 74 74 74
 74 74 74 74 74 74 74 74 74 74 74 74 74 74 74 74 74 74 74 74 74 74 74 74
 74 74 74 74 74 74 74 74 74 74 74]","[  432   571   752   920  1101  1291  1461  1632  1811  1992  2152  2331
  2491  2672  2832  3021  3181  3371  3531  3712  3891  4061  4240  4400
  4581  4752  4920  5091  5272  5451  5621  5800  5992  6171  6291  6512
  6672  6840  7011  7192  7381  7560  7752  7920  8112  8291  8472  8640
  8811  9000  9160  9331  9501  9680  9851 10032 10221 10392 10571 10752
 10920 11091 11280 11461 11632 11821 12000 12171 12360 12541 12720 12901
 13080 13251 13421 13611 13792 13960 14131 14301 14480 14661 14851]",179.0,5,0,1,38.0,0.933188576498485,48.857603102522575,54.829622100666086
audio-multiple-response,17,114844,0.0-6.0,52,False,v1.1,"[702, 1207, 1724, 2188, 2775, 3164, 3669, 4185, 4667, 5155, 5706, 6188, 6635, 7140, 7634, 8121, 8632, 9114, 9642, 10124, 10646, 11128, 11668, 12121, 12690, 13160, 13665, 14164, 14634]",,"[74, 74, 74, 74, 74, 74, 74, 74, 74, 74, 74, 74, 74, 74, 74, 74, 74, 74, 74, 74, 74, 74, 74, 74, 74, 74, 74, 74, 74]",tapping_test,,,IT2,"[74 74 74 74 74 74 74 74 74 74 74 74 74 74 74 74 74 74 74 74 74 74 74 74
 74 74 74 74 74]","[  702  1207  1724  2188  2775  3164  3669  4185  4667  5155  5706  6188
  6635  7140  7634  8121  8632  9114  9642 10124 10646 11128 11668 12121
 12690 13160 13665 14164 14634]",496.5,6,0,0,35.0,0.920531533225379,51.601176004148414,53.90047995838732
audio-multiple-response,17,148933,0.0-6.0,53,True,v1.1,"[520, 949, 1480, 1989, 2448, 2960, 3448, 3939, 4429, 4880, 5408, 5859, 6389, 6909, 7400, 7888, 8379, 8869, 9360, 9869, 10360, 10848, 11360, 11869, 12339, 12840, 13320, 13789, 14360, 14840]",,"[74, 74, 74, 74, 74, 74, 74, 74, 74, 74, 74, 74, 74, 74, 74, 74, 74, 74, 74, 74, 74, 74, 74, 74, 74, 74, 74, 74, 74, 74]",tapping_test,,,IT2,"[74 74 74 74 74 74 74 74 74 74 74 74 74 74 74 74 74 74 74 74 74 74 74 74
 74 74 74 74 74 74]","[  520   949  1480  1989  2448  2960  3448  3939  4429  4880  5408  5859
  6389  6909  7400  7888  8379  8869  9360  9869 10360 10848 11360 11869
 12339 12840 13320 13789 14360 14840]",491.0,2,4,0,22.0,0.9384589094327958,51.83577896231262,52.33268512706957
audio-multiple-response,17,62789,0.0-6.0,55,False,v1.1,"[4934, 5509, 5985, 7123]",,"[32, 67, 67, 50]",tapping_test,,,IT2,[],[],,4,2,0,90.0,0.2987961550190706,53.86118396428816,6.044903230063982
audio-multiple-response,17,70481,0.0-6.0,54,True,v1.1,"[5410, 5631, 5805, 5979, 6147, 6287, 7268, 7576, 7761, 7964, 8847, 9178, 9352, 9950, 10130]",,"[32, 32, 32, 32, 32, 32, 32, 32, 32, 32, 187, 16, 187, 187, 187]",tapping_test,,,IT2,[],[],,5,1,0,82.0,0.09468830659456254,50.4766403301678,-0.10370927411499009
audio-multiple-response,17,105804,0.0-6.0,57,True,v1.1,"[221, 865, 1428, 1933, 2194, 2456, 2699, 2978, 3727, 4540, 5683, 6536, 7320, 8098, 8789, 9474, 10118, 10623, 11053, 11476, 11738, 11999, 12260, 12475, 12684, 12893, 13241, 13473, 13682, 13880]",,"[74, 74, 74, 74, 74, 74, 74, 74, 74, 74, 74, 74, 74, 74, 74, 74, 74, 74, 74, 74, 74, 74, 74, 74, 74, 74, 74, 74, 74, 74]",tapping_test,,,IT2,"[74 74 74 74 74 74 74 74 74 74 74 74 74 74 74 74 74 74 74 74 74 74 74 74
 74 74 74 74 74 74]","[  221   865  1428  1933  2194  2456  2699  2978  3727  4540  5683  6536
  7320  8098  8789  9474 10118 10623 11053 11476 11738 11999 12260 12475
 12684 12893 13241 13473 13682 13880]",423.0,4,2,0,49.0,0.24703913787186044,46.788301185416245,6.006931149688343
audio-multiple-response,17,93475,0.0-6.0,47,False,v1.1,"[4040, 4128, 4629, 6720, 7419, 7909, 8549, 8560, 8939, 9168, 9379, 9419, 9640, 9699, 9960, 10000, 10280, 10320]",,"[70, 74, 70, 13, 32, 70, 70, 74, 74, 74, 74, 70, 74, 70, 70, 74, 70, 74]",tapping_test,,,IT2,[70 74 70 70 70 74 74 74 74 70 74 70 70 74 70 74],"[ 4040  4128  4629  7909  8549  8560  8939  9168  9379  9419  9640  9699
  9960 10000 10280 10320]",221.0,6,0,0,42.0,-0.42049512380837667,46.04394007365808,-27.989781632836454
audio-multiple-response,17,95870,0.0-6.0,58,True,v1.1,"[461, 1011, 1501, 2032, 2611, 3181, 3741, 4341, 4901, 5472, 6021, 6592, 7091, 7640, 8120, 8651, 9181, 9632, 10160, 10701, 11211, 11691, 12240, 12771, 13291, 13840, 14341, 14832]",,"[74, 74, 74, 74, 74, 74, 74, 74, 74, 74, 74, 74, 74, 74, 74, 74, 74, 74, 74, 74, 74, 74, 74, 74, 74, 74, 74, 74]",tapping_test,,,IT2,"[74 74 74 74 74 74 74 74 74 74 74 74 74 74 74 74 74 74 74 74 74 74 74 74
 74 74 74 74]","[  461  1011  1501  2032  2611  3181  3741  4341  4901  5472  6021  6592
  7091  7640  8120  8651  9181  9632 10160 10701 11211 11691 12240 12771
 13291 13840 14341 14832]",531.0,6,0,0,16.0,0.9531324504147719,46.03617600927198,55.80935927793946
audio-multiple-response,17,68946,0.0-6.0,56,True,v1.1,"[4580, 8754, 8916, 9485]",,"[32, 16, 187, 187]",tapping_test,,,IT2,[],[],,6,0,0,17.0,0.9554987351512618,50.502608954791285,45.09525146664467
audio-multiple-response,17,82682,0.0-6.0,60,False,v1.1,"[1672, 5306, 13630]",,"[74, 74, 32]",tapping_test,,,IT2,[74 74],[1672 5306],,0,6,0,45.0,0.8823967458831691,55.07707025840239,54.32396466830595
audio-multiple-response,17,97382,0.0-6.0,62,True,v1.1,"[331, 480, 611, 749, 891, 1029, 1171, 1331, 1469, 1621, 1771, 1920, 2069, 2229, 2371, 2509, 2669, 2821, 2971, 3120, 3261, 3429, 3571, 3741, 3901, 4069, 4221, 4371, 4531, 4691, 4851, 4989, 5141, 5309, 5451, 5611, 5760, 5891, 6051, 6181, 6341, 6469, 6621, 6771, 6931, 7080, 7221, 7381, 7531, 7669, 7829, 7981, 8141, 8291, 8440, 8611, 8760, 8920, 9069, 9221, 9381, 9520, 9640, 9789, 10560, 10800, 10981, 11160, 11371, 11629, 11851, 12069, 12341, 12571, 12821, 13051, 13280, 13501, 13709, 13941, 14120, 14320, 14520, 14709, 14981]",,"[74, 74, 74, 74, 74, 74, 74, 74, 74, 74, 74, 74, 74, 74, 74, 74, 74, 74, 74, 74, 74, 74, 74, 74, 74, 74, 74, 74, 74, 74, 74, 74, 74, 74, 74, 74, 74, 74, 74, 74, 74, 74, 74, 74, 74, 74, 74, 74, 74, 74, 74, 74, 74, 74, 74, 74, 74, 74, 74, 74, 74, 74, 74, 74, 74, 74, 74, 74, 74, 74, 74, 74, 74, 74, 74, 74, 74, 74, 74, 74, 74, 74, 74, 74, 74]",tapping_test,,,IT2,"[74 74 74 74 74 74 74 74 74 74 74 74 74 74 74 74 74 74 74 74 74 74 74 74
 74 74 74 74 74 74 74 74 74 74 74 74 74 74 74 74 74 74 74 74 74 74 74 74
 74 74 74 74 74 74 74 74 74 74 74 74 74 74 74 74 74 74 74 74 74 74 74 74
 74 74 74 74 74 74 74 74 74 74 74 74 74]","[  331   480   611   749   891  1029  1171  1331  1469  1621  1771  1920
  2069  2229  2371  2509  2669  2821  2971  3120  3261  3429  3571  3741
  3901  4069  4221  4371  4531  4691  4851  4989  5141  5309  5451  5611
  5760  5891  6051  6181  6341  6469  6621  6771  6931  7080  7221  7381
  7531  7669  7829  7981  8141  8291  8440  8611  8760  8920  9069  9221
  9381  9520  9640  9789 10560 10800 10981 11160 11371 11629 11851 12069
 12341 12571 12821 13051 13280 13501 13709 13941 14120 14320 14520 14709
 14981]",156.0,4,0,2,5.0,0.8950287970758657,48.75775326678864,37.06053649320236
audio-multiple-response,17,146909,0.0-6.0,63,True,v1.1,"[360, 11272, 11651]",,"[74, 74, 74]",tapping_test,,,IT2,[74 74 74],[  360 11272 11651],,6,0,0,24.0,0.9035113574992748,51.27670729585761,49.139900408080976
audio-multiple-response,17,101802,0.0-6.0,64,True,v1.1,"[389, 829, 1331, 1811, 2269, 2760, 3240, 3709, 4171, 4661, 5131, 5611, 6069, 6541, 7051, 7520, 7989, 8451, 8941, 9461, 9949, 10400, 10920, 11349, 11840, 12301, 12789, 13251, 13760, 14229, 14720]",,"[74, 74, 74, 74, 74, 74, 74, 74, 74, 74, 74, 74, 74, 74, 74, 74, 74, 74, 74, 74, 74, 74, 74, 74, 74, 74, 74, 74, 74, 74, 74]",tapping_test,,,IT2,"[74 74 74 74 74 74 74 74 74 74 74 74 74 74 74 74 74 74 74 74 74 74 74 74
 74 74 74 74 74 74 74]","[  389   829  1331  1811  2269  2760  3240  3709  4171  4661  5131  5611
  6069  6541  7051  7520  7989  8451  8941  9461  9949 10400 10920 11349
 11840 12301 12789 13251 13760 14229 14720]",476.0,6,0,0,38.0,0.9560056542907867,51.79012859090419,59.65492629418894
audio-multiple-response,17,131195,0.0-6.0,65,False,v1.1,"[476, 1376, 2229, 3111, 3849, 4731, 5515, 6298, 7059, 7930, 8725, 9549, 10310, 11088, 11918, 12713, 13537, 14280]",,"[74, 74, 74, 74, 74, 74, 74, 74, 74, 74, 74, 74, 74, 74, 74, 74, 74, 74]",tapping_test,,,IT2,[74 74 74 74 74 74 74 74 74 74 74 74 74 74 74 74 74 74],"[  476  1376  2229  3111  3849  4731  5515  6298  7059  7930  8725  9549
 10310 11088 11918 12713 13537 14280]",795.0,4,2,0,47.0,0.8797646351337047,50.985738441589774,52.18861101367885
audio-multiple-response,17,178435,0.0-6.0,68,True,v1.1,"[640, 1061, 1560, 2021, 2501, 2992, 3432, 3912, 4360, 4811, 5272, 5731, 6181, 6611, 7080, 7552, 7992, 8440, 8861, 9301, 9771, 10240, 10691, 11192, 11640, 12112, 12571, 13000, 13421, 13832, 14181]",,"[74, 74, 74, 74, 74, 74, 74, 74, 74, 74, 74, 74, 74, 74, 74, 74, 74, 74, 74, 74, 74, 74, 74, 74, 74, 74, 74, 74, 74, 74, 74]",tapping_test,,,IT2,"[74 74 74 74 74 74 74 74 74 74 74 74 74 74 74 74 74 74 74 74 74 74 74 74
 74 74 74 74 74 74 74]","[  640  1061  1560  2021  2501  2992  3432  3912  4360  4811  5272  5731
  6181  6611  7080  7552  7992  8440  8861  9301  9771 10240 10691 11192
 11640 12112 12571 13000 13421 13832 14181]",451.0,6,0,0,39.0,0.9235518285662343,54.29908473709777,59.11179844393232
audio-multiple-response,17,195013,0.0-6.0,69,False,v1.1,"[603, 960, 1163, 1339, 1525, 1696, 1899, 2107, 2320, 2544, 2757, 3003, 3227, 3515, 3808, 4059, 4299, 4517, 4757, 4981, 5184, 5419, 5653, 5904, 6160, 6411, 6683, 6923, 7141, 7381, 7627, 7893, 8117, 8368, 8613, 8853, 9088, 9328, 9557, 9829, 10053, 10320, 10576, 10789, 11040, 11264, 11531, 11781, 12000, 12251, 12464, 12699, 12933, 13179, 13397, 13648, 13851, 14085, 14469, 14725, 14933]",,"[74, 74, 74, 74, 74, 74, 74, 74, 74, 74, 74, 74, 74, 74, 74, 74, 74, 74, 74, 74, 74, 74, 74, 74, 74, 74, 74, 74, 74, 74, 74, 74, 74, 74, 74, 74, 74, 74, 74, 74, 74, 74, 74, 74, 74, 74, 74, 74, 74, 74, 74, 74, 74, 74, 74, 74, 74, 74, 74, 74, 74]",tapping_test,,,IT2,"[74 74 74 74 74 74 74 74 74 74 74 74 74 74 74 74 74 74 74 74 74 74 74 74
 74 74 74 74 74 74 74 74 74 74 74 74 74 74 74 74 74 74 74 74 74 74 74 74
 74 74 74 74 74 74 74 74 74 74 74 74 74]","[  603   960  1163  1339  1525  1696  1899  2107  2320  2544  2757  3003
  3227  3515  3808  4059  4299  4517  4757  4981  5184  5419  5653  5904
  6160  6411  6683  6923  7141  7381  7627  7893  8117  8368  8613  8853
  9088  9328  9557  9829 10053 10320 10576 10789 11040 11264 11531 11781
 12000 12251 12464 12699 12933 13179 13397 13648 13851 14085 14469 14725
 14933]",237.5,4,0,2,20.0,0.8716212060912736,48.327323744484644,47.47924745068537
audio-multiple-response,17,155892,0.0-6.0,70,True,v1.1,"[639, 882, 1329, 1811, 2293, 2821, 3396, 3976, 4609, 5213, 5828, 6351, 6931, 7517, 8046, 8528, 9131, 9689, 10298, 10867, 11401, 11929, 12481, 13026, 13578, 14060, 14536]",,"[74, 74, 74, 74, 74, 74, 74, 74, 74, 74, 74, 74, 74, 74, 74, 74, 74, 74, 74, 74, 74, 74, 74, 74, 74, 74, 74]",tapping_test,,,IT2,"[74 74 74 74 74 74 74 74 74 74 74 74 74 74 74 74 74 74 74 74 74 74 74 74
 74 74 74]","[  639   882  1329  1811  2293  2821  3396  3976  4609  5213  5828  6351
  6931  7517  8046  8528  9131  9689 10298 10867 11401 11929 12481 13026
 13578 14060 14536]",548.5,5,0,1,54.0,0.840946032333197,52.1959569169259,65.33610187563457
audio-multiple-response,17,179192,0.0-6.0,71,False,v1.1,"[691, 1469, 2293, 3082, 3849, 4667, 5422, 6200, 7001, 7744, 8493, 9352, 10066, 10850, 11610, 12428, 13212, 13973, 14745]",,"[74, 74, 74, 74, 74, 74, 74, 74, 74, 74, 74, 74, 74, 74, 74, 74, 74, 74, 74]",tapping_test,,,IT2,[74 74 74 74 74 74 74 74 74 74 74 74 74 74 74 74 74 74 74],"[  691  1469  2293  3082  3849  4667  5422  6200  7001  7744  8493  9352
 10066 10850 11610 12428 13212 13973 14745]",778.0,6,0,0,5.0,0.9427771175363916,50.3206392900737,44.72191473362045
audio-multiple-response,17,136628,0.0-6.0,72,True,v1.1,"[789, 1600, 2360, 3109, 3851, 4571, 5261, 5981, 6701, 7451, 8141, 8891, 9600, 10341, 11029, 11760, 12509, 13189, 13941, 14720]",,"[74, 74, 74, 74, 74, 74, 74, 74, 74, 74, 74, 74, 74, 74, 74, 74, 74, 74, 74, 74]",tapping_test,,,IT2,[74 74 74 74 74 74 74 74 74 74 74 74 74 74 74 74 74 74 74 74],"[  789  1600  2360  3109  3851  4571  5261  5981  6701  7451  8141  8891
  9600 10341 11029 11760 12509 13189 13941 14720]",741.0,5,0,1,21.0,0.917216013835564,46.356971839505064,40.70258778869824
audio-multiple-response,17,61310,0.0-6.0,73,True,v1.1,"[869, 1029, 1171, 1259, 1389, 1520, 1640, 1760, 2011, 2139, 2280, 2440, 2680, 2859, 3011, 3131, 3251, 3400, 3549, 3680, 3811, 3971, 4149, 4331, 4459, 4611, 4779, 4960, 5299, 5480, 5640, 5811, 5979, 6160, 6339, 6579, 6749, 6909, 7080, 7240, 7379, 7509, 7640, 7891, 8051, 8200, 8339, 8459, 8619, 8749, 8899, 9059, 9251, 9411, 9579, 9739, 9899, 10040, 10189, 10349, 10499, 10651, 10840, 11019, 11211, 11379, 11539, 11731, 11909, 12069, 12229, 12379, 12560, 12731, 12899, 13080, 13251, 13419, 13579, 13749, 13899, 14051, 14200, 14371, 14539, 14709, 14880]",,"[70, 70, 70, 70, 70, 70, 70, 70, 70, 70, 70, 70, 70, 70, 70, 70, 70, 70, 70, 70, 70, 70, 70, 70, 70, 70, 70, 70, 70, 70, 70, 70, 70, 70, 70, 70, 70, 70, 70, 70, 70, 70, 70, 70, 70, 70, 70, 70, 70, 70, 70, 70, 70, 70, 70, 70, 70, 70, 70, 70, 70, 70, 70, 70, 70, 70, 70, 70, 70, 70, 70, 70, 70, 70, 70, 70, 70, 70, 70, 70, 70, 70, 70, 70, 70, 70, 70]",tapping_test,,,IT2,"[70 70 70 70 70 70 70 70 70 70 70 70 70 70 70 70 70 70 70 70 70 70 70 70
 70 70 70 70 70 70 70 70 70 70 70 70 70 70 70 70 70 70 70 70 70 70 70 70
 70 70 70 70 70 70 70 70 70 70 70 70 70 70 70 70 70 70 70 70 70 70 70 70
 70 70 70 70 70 70 70 70 70 70 70 70 70 70 70]","[  869  1029  1171  1259  1389  1520  1640  1760  2011  2139  2280  2440
  2680  2859  3011  3131  3251  3400  3549  3680  3811  3971  4149  4331
  4459  4611  4779  4960  5299  5480  5640  5811  5979  6160  6339  6579
  6749  6909  7080  7240  7379  7509  7640  7891  8051  8200  8339  8459
  8619  8749  8899  9059  9251  9411  9579  9739  9899 10040 10189 10349
 10499 10651 10840 11019 11211 11379 11539 11731 11909 12069 12229 12379
 12560 12731 12899 13080 13251 13419 13579 13749 13899 14051 14200 14371
 14539 14709 14880]",160.0,6,0,0,43.0,0.627164263345426,50.5625280486873,23.710239122602587
audio-multiple-response,17,127820,0.0-6.0,76,True,v1.1,"[569, 1440, 2229, 2966, 3831, 4580, 5335, 6107, 6885, 7628, 8435, 9224, 9990, 10739, 11558, 12318, 13131, 13851, 14634]",,"[74, 74, 74, 74, 74, 74, 74, 74, 74, 74, 74, 74, 74, 74, 74, 74, 74, 74, 74]",tapping_test,,,IT2,[74 74 74 74 74 74 74 74 74 74 74 74 74 74 74 74 74 74 74],"[  569  1440  2229  2966  3831  4580  5335  6107  6885  7628  8435  9224
  9990 10739 11558 12318 13131 13851 14634]",775.0,5,0,1,19.0,0.8895399286200099,51.83433911942021,49.003339882928955
audio-multiple-response,17,247661,0.0-6.0,77,False,v1.1,"[639, 1022, 1411, 1788, 2171, 2572, 3001, 3425, 3860, 4325, 4830, 5294, 5735, 6165, 6606, 7070, 7506, 7964, 8377, 8887, 9340, 9828, 10275, 10739, 11180, 11651, 12098, 12579, 12968, 13392, 13833, 14257, 14716]",,"[74, 74, 74, 74, 74, 74, 74, 74, 74, 74, 74, 74, 74, 74, 74, 74, 74, 74, 74, 74, 74, 74, 74, 74, 74, 74, 74, 74, 74, 74, 74, 74, 74]",tapping_test,,,IT2,"[74 74 74 74 74 74 74 74 74 74 74 74 74 74 74 74 74 74 74 74 74 74 74 74
 74 74 74 74 74 74 74 74 74]","[  639  1022  1411  1788  2171  2572  3001  3425  3860  4325  4830  5294
  5735  6165  6606  7070  7506  7964  8377  8887  9340  9828 10275 10739
 11180 11651 12098 12579 12968 13392 13833 14257 14716]",441.0,5,1,0,4.0,0.8596502490153604,54.48328985197571,32.99561637917675
audio-multiple-response,17,153034,0.0-6.0,78,False,v1.1,"[491, 1189, 1840, 2579, 3299, 4029, 4779, 5480, 6200, 6909, 7560, 8291, 9040, 9720, 10400, 11091, 11789, 12520, 13189, 13899, 14571]",,"[74, 74, 74, 74, 74, 74, 74, 74, 74, 74, 74, 74, 74, 74, 74, 74, 74, 74, 74, 74, 74]",tapping_test,,,IT2,[74 74 74 74 74 74 74 74 74 74 74 74 74 74 74 74 74 74 74 74 74],"[  491  1189  1840  2579  3299  4029  4779  5480  6200  6909  7560  8291
  9040  9720 10400 11091 11789 12520 13189 13899 14571]",705.0,6,0,0,24.0,0.7744352615048017,52.9477776624347,30.329830121709946
audio-multiple-response,17,122331,0.0-6.0,79,False,v1.1,"[4383, 4661, 4917, 5184, 5428, 5683, 5944, 6211, 6455, 6699, 6966, 7517, 8731, 8992, 9218, 9445, 9712, 9961, 11981, 12307, 12632, 12945, 13700, 14745]",,"[74, 74, 74, 74, 74, 74, 74, 74, 74, 74, 74, 74, 74, 74, 74, 74, 74, 74, 74, 74, 74, 74, 74, 74]",tapping_test,,,IT2,[74 74 74 74 74 74 74 74 74 74 74 74 74 74 74 74 74 74 74 74 74 74 74 74],"[ 4383  4661  4917  5184  5428  5683  5944  6211  6455  6699  6966  7517
  8731  8992  9218  9445  9712  9961 11981 12307 12632 12945 13700 14745]",267.0,2,4,0,20.0,0.9143603768024215,52.13827296009272,51.39751478116874
audio-multiple-response,17,133968,0.0-6.0,80,False,v1.1,"[155, 395, 672, 1360, 1563, 1717, 1888, 2069, 2267, 2480, 2683, 2875, 3072, 3275, 3461, 3653, 3824, 4011, 4213, 4411, 4603, 4816, 5024, 5216, 5408, 5621, 5813, 6011, 6203, 6405, 6624, 6821, 7019, 7216, 7397, 7611, 7808, 8016, 8213, 8432, 8667, 8869, 9077, 9275, 9477, 9669, 9877, 10075, 10272, 10459, 10709, 10917, 11115, 11317, 11525, 11717, 11947, 12144, 12357, 12549, 12768, 12965, 13195, 13392, 13589, 13803, 14016, 14256, 14480, 14683, 14901]",,"[70, 70, 70, 70, 70, 70, 70, 70, 70, 70, 70, 70, 70, 70, 70, 70, 70, 70, 70, 70, 70, 70, 70, 70, 70, 70, 70, 70, 70, 70, 70, 70, 70, 70, 70, 70, 70, 70, 70, 70, 70, 70, 70, 70, 70, 70, 70, 70, 70, 70, 70, 70, 70, 70, 70, 70, 70, 70, 70, 70, 70, 70, 70, 70, 70, 70, 70, 70, 70, 70, 70]",tapping_test,,,IT2,"[70 70 70 70 70 70 70 70 70 70 70 70 70 70 70 70 70 70 70 70 70 70 70 70
 70 70 70 70 70 70 70 70 70 70 70 70 70 70 70 70 70 70 70 70 70 70 70 70
 70 70 70 70 70 70 70 70 70 70 70 70 70 70 70 70 70 70 70 70 70 70 70]","[  155   395   672  1360  1563  1717  1888  2069  2267  2480  2683  2875
  3072  3275  3461  3653  3824  4011  4213  4411  4603  4816  5024  5216
  5408  5621  5813  6011  6203  6405  6624  6821  7019  7216  7397  7611
  7808  8016  8213  8432  8667  8869  9077  9275  9477  9669  9877 10075
 10272 10459 10709 10917 11115 11317 11525 11717 11947 12144 12357 12549
 12768 12965 13195 13392 13589 13803 14016 14256 14480 14683 14901]",200.0,5,0,1,76.0,0.9377853826767872,51.63405378671962,68.7152470185182
audio-multiple-response,17,257351,0.0-6.0,84,True,v1.1,"[552, 920, 1331, 1701, 2091, 2472, 2872, 3240, 3632, 4000, 4341, 4691, 5051, 5352, 5691, 6120, 6501, 6872, 7221, 7571, 7960, 8280, 8691, 9000, 9360, 9712, 10091, 10432, 10760, 11131, 11480, 11872, 12200, 12552, 12941, 13280, 13651, 13981, 14301, 14640, 15011]",,"[74, 74, 74, 74, 74, 74, 74, 74, 74, 74, 74, 74, 74, 74, 74, 74, 74, 74, 74, 74, 74, 74, 74, 74, 74, 74, 74, 74, 74, 74, 74, 74, 74, 74, 74, 74, 74, 74, 74, 74, 74]",tapping_test,,,IT2,"[74 74 74 74 74 74 74 74 74 74 74 74 74 74 74 74 74 74 74 74 74 74 74 74
 74 74 74 74 74 74 74 74 74 74 74 74 74 74 74 74 74]","[  552   920  1331  1701  2091  2472  2872  3240  3632  4000  4341  4691
  5051  5352  5691  6120  6501  6872  7221  7571  7960  8280  8691  9000
  9360  9712 10091 10432 10760 11131 11480 11872 12200 12552 12941 13280
 13651 13981 14301 14640 15011]",364.0,6,0,0,44.0,0.9283011525033591,48.99021079911479,60.06591835595151
audio-multiple-response,17,149754,0.0-6.0,85,False,v1.1,"[811, 1291, 1709, 2131, 2581, 3040, 3509, 3949, 4440, 4861, 5269, 5709, 6229, 6661, 7101, 7589, 8000, 8461, 8920, 9389, 9941, 10341, 10789, 11229, 11720, 12171, 12581, 12941, 13309, 13720, 14069, 14429, 14891]",,"[74, 74, 74, 74, 74, 74, 74, 74, 74, 74, 74, 74, 74, 74, 74, 74, 74, 74, 74, 74, 74, 74, 74, 74, 74, 74, 74, 74, 74, 74, 74, 74, 74]",tapping_test,,,IT2,"[74 74 74 74 74 74 74 74 74 74 74 74 74 74 74 74 74 74 74 74 74 74 74 74
 74 74 74 74 74 74 74 74 74]","[  811  1291  1709  2131  2581  3040  3509  3949  4440  4861  5269  5709
  6229  6661  7101  7589  8000  8461  8920  9389  9941 10341 10789 11229
 11720 12171 12581 12941 13309 13720 14069 14429 14891]",440.0,1,5,0,30.0,0.9400745722265096,46.90999096080803,52.52800663185691
audio-multiple-response,17,157177,0.0-6.0,86,False,v1.1,"[650, 1010, 1289, 1637, 1939, 2810, 3158, 3471, 3779, 4122, 4447, 4748, 5056, 5352, 5700, 6002, 6293, 6629, 7059, 7401, 7715, 8046, 8382, 8760, 9096, 9462, 9793, 10147, 10478, 10820, 11175, 11535, 11889, 12231, 12527, 12887, 13218, 13549, 13903, 14245, 14582, 14930]",,"[74, 74, 74, 74, 74, 74, 74, 74, 74, 74, 74, 74, 74, 74, 74, 74, 74, 74, 74, 74, 74, 74, 74, 74, 74, 74, 74, 74, 74, 74, 74, 74, 74, 74, 74, 74, 74, 74, 74, 74, 74, 74]",tapping_test,,,IT2,"[74 74 74 74 74 74 74 74 74 74 74 74 74 74 74 74 74 74 74 74 74 74 74 74
 74 74 74 74 74 74 74 74 74 74 74 74 74 74 74 74 74 74]","[  650  1010  1289  1637  1939  2810  3158  3471  3779  4122  4447  4748
  5056  5352  5700  6002  6293  6629  7059  7401  7715  8046  8382  8760
  9096  9462  9793 10147 10478 10820 11175 11535 11889 12231 12527 12887
 13218 13549 13903 14245 14582 14930]",337.0,5,0,1,27.0,0.9431589248849305,51.27889263242251,58.43176998778984
audio-multiple-response,17,131629,0.0-6.0,87,True,v1.1,"[819, 1411, 2148, 2862, 3617, 4452, 5271, 6020, 6780, 7535, 8330, 9125, 9927, 10710, 11581, 12341, 13172, 13932, 14681]",,"[74, 74, 74, 74, 74, 74, 74, 74, 74, 74, 74, 74, 74, 74, 74, 74, 74, 74, 74]",tapping_test,,,IT2,[74 74 74 74 74 74 74 74 74 74 74 74 74 74 74 74 74 74 74],"[  819  1411  2148  2862  3617  4452  5271  6020  6780  7535  8330  9125
  9927 10710 11581 12341 13172 13932 14681]",760.0,6,0,0,33.0,0.8923980769232418,50.063685051189815,55.793955698709354
audio-multiple-response,17,176104,0.0-6.0,89,True,v1.1,"[480, 1141, 1869, 2629, 3389, 4181, 4949, 5701, 6461, 7251, 8011, 8851, 9651, 10429, 11211, 12029, 12800, 13531, 14211, 14861]",,"[74, 74, 74, 74, 74, 74, 74, 74, 74, 74, 74, 74, 74, 74, 74, 74, 74, 74, 74, 74]",tapping_test,,,IT2,[74 74 74 74 74 74 74 74 74 74 74 74 74 74 74 74 74 74 74 74],"[  480  1141  1869  2629  3389  4181  4949  5701  6461  7251  8011  8851
  9651 10429 11211 12029 12800 13531 14211 14861]",760.0,3,3,0,48.0,0.945949781579798,49.437020302744855,60.47037317109688
audio-multiple-response,17,120695,0.0-6.0,90,True,v1.1,"[971, 2288, 3461, 4608, 6005, 7211, 8347, 9477, 10565, 11819, 12981, 13979]",,"[70, 70, 70, 70, 70, 70, 70, 70, 70, 70, 70, 70]",tapping_test,,,IT2,[70 70 70 70 70 70 70 70 70 70 70 70],[  971  2288  3461  4608  6005  7211  8347  9477 10565 11819 12981 13979],1162.0,6,0,0,28.0,0.9550233467200345,52.06297522856623,57.24705188864551
audio-multiple-response,17,1486615,0.0-6.0,91,True,v1.1,"[672, 1120, 1723, 2459, 3259, 4043, 4763, 5365, 5973, 6560, 7125, 7701, 8315, 8955, 9584, 10197, 10805, 11397, 12032, 12587, 13189, 13776, 14405]",,"[74, 74, 74, 74, 74, 74, 74, 74, 74, 74, 74, 74, 74, 74, 74, 74, 74, 74, 74, 74, 74, 74, 74]",tapping_test,,,IT2,[74 74 74 74 74 74 74 74 74 74 74 74 74 74 74 74 74 74 74 74 74 74 74],"[  672  1120  1723  2459  3259  4043  4763  5365  5973  6560  7125  7701
  8315  8955  9584 10197 10805 11397 12032 12587 13189 13776 14405]",608.0,6,0,0,14.0,0.8805087500872839,47.66148297505913,42.28143909619047
audio-multiple-response,17,124624,0.0-6.0,92,False,v1.1,"[842, 2072, 2676, 3199, 3744, 4313, 4841, 5416, 5991, 6502, 7047, 7552, 8081, 8626, 9149, 9793, 10385, 10960, 12318, 12992, 13630, 14234, 14890]",,"[74, 74, 74, 74, 74, 74, 74, 74, 74, 74, 74, 74, 74, 74, 74, 74, 74, 74, 74, 74, 74, 74, 74]",tapping_test,,,IT2,[74 74 74 74 74 74 74 74 74 74 74 74 74 74 74 74 74 74 74 74 74 74 74],"[  842  2072  2676  3199  3744  4313  4841  5416  5991  6502  7047  7552
  8081  8626  9149  9793 10385 10960 12318 12992 13630 14234 14890]",575.0,3,3,0,49.0,0.7887368233881534,55.91990728295103,55.8834733663366
audio-multiple-response,17,171856,0.0-6.0,93,False,v1.1,"[157, 395, 598, 1167, 1370, 1573, 1788, 2014, 2247, 2444, 2676, 2885, 3106, 3338, 3547, 3779, 3994, 4203, 4429, 4644, 4882, 5108, 5306, 5526, 5764, 6002, 6246, 6548, 6861, 7140, 7605, 7860, 8098, 8342, 8638, 8922, 9189, 9485, 9741, 10002, 10286, 10565, 10826, 11105, 11343, 11598, 11860, 12283, 12545, 12875, 13172, 13508, 13769, 14309, 14571, 14826]",,"[74, 74, 74, 74, 74, 74, 74, 74, 74, 74, 74, 74, 74, 74, 74, 74, 74, 74, 74, 74, 74, 74, 74, 74, 74, 74, 74, 74, 74, 74, 74, 74, 74, 74, 74, 74, 74, 74, 74, 74, 74, 74, 74, 74, 74, 74, 74, 74, 74, 74, 74, 74, 74, 74, 74, 74]",tapping_test,,,IT2,"[74 74 74 74 74 74 74 74 74 74 74 74 74 74 74 74 74 74 74 74 74 74 74 74
 74 74 74 74 74 74 74 74 74 74 74 74 74 74 74 74 74 74 74 74 74 74 74 74
 74 74 74 74 74 74 74 74]","[  157   395   598  1167  1370  1573  1788  2014  2247  2444  2676  2885
  3106  3338  3547  3779  3994  4203  4429  4644  4882  5108  5306  5526
  5764  6002  6246  6548  6861  7140  7605  7860  8098  8342  8638  8922
  9189  9485  9741 10002 10286 10565 10826 11105 11343 11598 11860 12283
 12545 12875 13172 13508 13769 14309 14571 14826]",244.0,5,1,0,45.0,0.9064983590980358,50.572524097731446,64.70209506046787
audio-multiple-response,17,139376,0.0-6.0,94,True,v1.1,"[517, 1074, 1649, 2171, 2717, 3228, 3756, 4255, 4748, 5364, 5840, 6380, 6925, 7454, 7999, 8499, 9021, 9520, 10037, 10507, 11006, 11471, 11964, 12446, 12951, 13410, 13920, 14420, 14884]",,"[74, 74, 74, 74, 74, 74, 74, 74, 74, 74, 74, 74, 74, 74, 74, 74, 74, 74, 74, 74, 74, 74, 74, 74, 74, 74, 74, 74, 74]",tapping_test,,,IT2,"[74 74 74 74 74 74 74 74 74 74 74 74 74 74 74 74 74 74 74 74 74 74 74 74
 74 74 74 74 74]","[  517  1074  1649  2171  2717  3228  3756  4255  4748  5364  5840  6380
  6925  7454  7999  8499  9021  9520 10037 10507 11006 11471 11964 12446
 12951 13410 13920 14420 14884]",507.5,6,0,0,61.0,0.959203104037174,49.907189968232416,69.81438548220476
audio-multiple-response,17,116309,0.0-6.0,95,True,v1.1,"[496, 741, 949, 1157, 1392, 1595, 1829, 2027, 2245, 2448, 2693, 2885, 3104, 3317, 3531, 3728, 3952, 4155, 4373, 4571, 4779, 4987, 5195, 5408, 5627, 5840, 6069, 6288, 6491, 6731, 6939, 7152, 7365, 7584, 7819, 8043, 8245, 8459, 8683, 8901, 9109, 9344, 9563, 9776, 10005, 10213, 10421, 10635, 10853, 11067, 11275, 11493, 11707, 11925, 12149, 12363, 12571, 12789, 13003, 13248, 13456, 13680, 13893, 14112, 14341, 14549, 14768, 14971]",,"[74, 74, 74, 74, 74, 74, 74, 74, 74, 74, 74, 74, 74, 74, 74, 74, 74, 74, 74, 74, 74, 74, 74, 74, 74, 74, 74, 74, 74, 74, 74, 74, 74, 74, 74, 74, 74, 74, 74, 74, 74, 74, 74, 74, 74, 74, 74, 74, 74, 74, 74, 74, 74, 74, 74, 74, 74, 74, 74, 74, 74, 74, 74, 74, 74, 74, 74, 74]",tapping_test,,,IT2,"[74 74 74 74 74 74 74 74 74 74 74 74 74 74 74 74 74 74 74 74 74 74 74 74
 74 74 74 74 74 74 74 74 74 74 74 74 74 74 74 74 74 74 74 74 74 74 74 74
 74 74 74 74 74 74 74 74 74 74 74 74 74 74 74 74 74 74 74 74]","[  496   741   949  1157  1392  1595  1829  2027  2245  2448  2693  2885
  3104  3317  3531  3728  3952  4155  4373  4571  4779  4987  5195  5408
  5627  5840  6069  6288  6491  6731  6939  7152  7365  7584  7819  8043
  8245  8459  8683  8901  9109  9344  9563  9776 10005 10213 10421 10635
 10853 11067 11275 11493 11707 11925 12149 12363 12571 12789 13003 13248
 13456 13680 13893 14112 14341 14549 14768 14971]",214.0,5,0,1,30.0,0.9482852469192458,55.17232400664051,56.09430478501733
audio-multiple-response,17,144267,0.0-6.0,97,True,v1.1,"[429, 691, 1000, 1309, 1619, 1920, 2240, 2539, 2840, 3139, 3451, 3760, 4069, 4349, 4680, 4989, 5291, 5611, 5920, 6211, 6531, 6859, 7179, 7499, 7811, 8160, 8491, 8819, 9160, 9469, 9829, 10160, 10499, 10859, 11179, 11509, 11869, 12229, 12579, 12920, 13280, 13629, 13971, 14339, 14680]",,"[70, 70, 70, 70, 70, 70, 70, 70, 70, 70, 70, 70, 70, 70, 70, 70, 70, 70, 70, 70, 70, 70, 70, 70, 70, 70, 70, 70, 70, 70, 70, 70, 70, 70, 70, 70, 70, 70, 70, 70, 70, 70, 70, 70, 70]",tapping_test,,,IT2,"[70 70 70 70 70 70 70 70 70 70 70 70 70 70 70 70 70 70 70 70 70 70 70 70
 70 70 70 70 70 70 70 70 70 70 70 70 70 70 70 70 70 70 70 70 70]","[  429   691  1000  1309  1619  1920  2240  2539  2840  3139  3451  3760
  4069  4349  4680  4989  5291  5611  5920  6211  6531  6859  7179  7499
  7811  8160  8491  8819  9160  9469  9829 10160 10499 10859 11179 11509
 11869 12229 12579 12920 13280 13629 13971 14339 14680]",320.0,6,0,0,16.0,0.9321618970083738,47.793167884563275,32.161614591324145
audio-multiple-response,17,221973,0.0-6.0,98,False,v1.1,"[708, 1329, 1980, 2653, 3297, 3947, 4563, 5219, 5863, 6513, 7181, 7784, 8423, 9073, 9718, 10350, 10931, 11535, 12185, 12806, 13444, 14065, 14692]",,"[70, 70, 70, 70, 70, 70, 70, 70, 70, 70, 70, 70, 70, 70, 70, 70, 70, 70, 70, 70, 70, 70, 70]",tapping_test,,,IT2,[70 70 70 70 70 70 70 70 70 70 70 70 70 70 70 70 70 70 70 70 70 70 70],"[  708  1329  1980  2653  3297  3947  4563  5219  5863  6513  7181  7784
  8423  9073  9718 10350 10931 11535 12185 12806 13444 14065 14692]",641.5,6,0,0,9.0,0.9539751459332599,45.3871830001755,48.49226828404101
audio-multiple-response,17,90073,0.0-6.0,101,False,v1.1,"[741, 1120, 1515, 1819, 2181, 2843, 3221, 3552, 3867, 4219, 4555, 4901, 5237, 5589, 5909, 6288, 6619, 6955, 7328, 7648, 7984, 8309, 8645, 8992, 9317, 9691, 9989, 10347, 10656, 11051, 11365, 11701, 12016, 12347, 12672, 13019, 13371, 13696, 14011, 14373, 14672]",,"[74, 74, 74, 74, 74, 74, 74, 74, 74, 74, 74, 74, 74, 74, 74, 74, 74, 74, 74, 74, 74, 74, 74, 74, 74, 74, 74, 74, 74, 74, 74, 74, 74, 74, 74, 74, 74, 74, 74, 74, 74]",tapping_test,,,IT2,"[74 74 74 74 74 74 74 74 74 74 74 74 74 74 74 74 74 74 74 74 74 74 74 74
 74 74 74 74 74 74 74 74 74 74 74 74 74 74 74 74 74]","[  741  1120  1515  1819  2181  2843  3221  3552  3867  4219  4555  4901
  5237  5589  5909  6288  6619  6955  7328  7648  7984  8309  8645  8992
  9317  9691  9989 10347 10656 11051 11365 11701 12016 12347 12672 13019
 13371 13696 14011 14373 14672]",336.0,6,0,0,13.0,0.8676854180510376,54.031655976453195,52.29769142119113
audio-multiple-response,17,185268,0.0-6.0,102,False,v1.1,"[611, 891, 1171, 1512, 1851, 2211, 2541, 2880, 3211, 3541, 3880, 4200, 4501, 4811, 5120, 5432, 5741, 6061, 6352, 6661, 6971, 7261, 7571, 7891, 8192, 8491, 8800, 9080, 9411, 9720, 10032, 10341, 10680, 11011, 11331, 11672, 12000, 12301, 12632, 12960, 13272, 13581, 13891, 14200, 14491, 14832]",,"[74, 74, 74, 74, 74, 74, 74, 74, 74, 74, 74, 74, 74, 74, 74, 74, 74, 74, 74, 74, 74, 74, 74, 74, 74, 74, 74, 74, 74, 74, 74, 74, 74, 74, 74, 74, 74, 74, 74, 74, 74, 74, 74, 74, 74, 74]",tapping_test,,,IT2,"[74 74 74 74 74 74 74 74 74 74 74 74 74 74 74 74 74 74 74 74 74 74 74 74
 74 74 74 74 74 74 74 74 74 74 74 74 74 74 74 74 74 74 74 74 74 74]","[  611   891  1171  1512  1851  2211  2541  2880  3211  3541  3880  4200
  4501  4811  5120  5432  5741  6061  6352  6661  6971  7261  7571  7891
  8192  8491  8800  9080  9411  9720 10032 10341 10680 11011 11331 11672
 12000 12301 12632 12960 13272 13581 13891 14200 14491 14832]",312.0,6,0,0,15.0,0.9269933109361406,51.60041727594526,55.7133924955114
audio-multiple-response,17,240919,0.0-6.0,103,False,v1.1,"[560, 1240, 1411, 1571, 1720, 1899, 2051, 2211, 2379, 2531, 2680, 2829, 2960, 3120, 3280, 3429, 3589, 3720, 3869, 4011, 4149, 4659, 4800, 4939, 5099, 5251, 5371, 5520, 5659, 5811, 5939, 6059, 6200, 6339, 6469, 6629, 6789, 6960, 7120, 7259, 7389, 7539, 7691, 7840, 7979, 8120, 8280, 8429, 8589, 8749, 8949, 9139, 9320, 9499, 9691, 9859, 10019, 10179, 10320, 10469, 10640, 10789, 10891, 11019, 11171, 11309, 11451, 11579, 11709, 11851, 11960, 14459, 14640, 14800, 14971]",,"[74, 74, 74, 74, 74, 74, 74, 74, 74, 74, 74, 74, 74, 74, 74, 74, 74, 74, 74, 74, 74, 74, 74, 74, 74, 74, 74, 74, 74, 74, 74, 74, 74, 74, 74, 74, 74, 74, 74, 74, 74, 74, 74, 74, 74, 74, 74, 74, 74, 74, 74, 74, 74, 74, 74, 74, 74, 74, 74, 74, 74, 74, 74, 74, 74, 74, 74, 74, 74, 74, 74, 74, 74, 74, 74]",tapping_test,,,IT2,"[74 74 74 74 74 74 74 74 74 74 74 74 74 74 74 74 74 74 74 74 74 74 74 74
 74 74 74 74 74 74 74 74 74 74 74 74 74 74 74 74 74 74 74 74 74 74 74 74
 74 74 74 74 74 74 74 74 74 74 74 74 74 74 74 74 74 74 74 74 74 74 74 74
 74 74 74]","[  560  1240  1411  1571  1720  1899  2051  2211  2379  2531  2680  2829
  2960  3120  3280  3429  3589  3720  3869  4011  4149  4659  4800  4939
  5099  5251  5371  5520  5659  5811  5939  6059  6200  6339  6469  6629
  6789  6960  7120  7259  7389  7539  7691  7840  7979  8120  8280  8429
  8589  8749  8949  9139  9320  9499  9691  9859 10019 10179 10320 10469
 10640 10789 10891 11019 11171 11309 11451 11579 11709 11851 11960 14459
 14640 14800 14971]",151.0,6,0,0,59.0,0.9044878738317552,49.51888523847718,61.09535760875694
audio-multiple-response,17,123401,0.0-6.0,104,False,v1.1,"[989, 1560, 2139, 2669, 3280, 3840, 4419, 4960, 5531, 6091, 6680, 7229, 7819, 8411, 8979, 9549, 10149, 10720, 11251, 11829, 12451, 13019, 13619, 14171, 14749]",,"[74, 74, 74, 74, 74, 74, 74, 74, 74, 74, 74, 74, 74, 74, 74, 74, 74, 74, 74, 74, 74, 74, 74, 74, 74]",tapping_test,,,IT2,"[74 74 74 74 74 74 74 74 74 74 74 74 74 74 74 74 74 74 74 74 74 74 74 74
 74]","[  989  1560  2139  2669  3280  3840  4419  4960  5531  6091  6680  7229
  7819  8411  8979  9549 10149 10720 11251 11829 12451 13019 13619 14171
 14749]",571.0,6,0,0,24.0,0.9739279809886237,52.129817907002106,60.13210100933842
audio-multiple-response,17,140150,0.0-6.0,105,False,v1.1,"[613, 880, 1104, 1435, 1627, 1856, 2053, 2261, 2475, 2683, 2891, 3083, 3269, 3483, 3675, 3867, 4069, 4288, 4480, 4688, 4917, 5115, 5349, 5568, 5771, 5968, 6187, 6379, 6576, 6779, 7003, 7221, 7440, 7653, 7883, 8240, 8464, 8672, 8907, 9141, 9355, 9568, 9808, 10032, 10283, 10501, 10731, 10955, 11179, 11413, 11648, 11893, 12155, 12373, 12608, 12864, 13077, 13301, 13515, 13717, 13957, 14197, 14405, 14640, 14869]",,"[74, 74, 74, 74, 74, 74, 74, 74, 74, 74, 74, 74, 74, 74, 74, 74, 74, 74, 74, 74, 74, 74, 74, 74, 74, 74, 74, 74, 74, 74, 74, 74, 74, 74, 74, 74, 74, 74, 74, 74, 74, 74, 74, 74, 74, 74, 74, 74, 74, 74, 74, 74, 74, 74, 74, 74, 74, 74, 74, 74, 74, 74, 74, 74, 74]",tapping_test,,,IT2,"[74 74 74 74 74 74 74 74 74 74 74 74 74 74 74 74 74 74 74 74 74 74 74 74
 74 74 74 74 74 74 74 74 74 74 74 74 74 74 74 74 74 74 74 74 74 74 74 74
 74 74 74 74 74 74 74 74 74 74 74 74 74 74 74 74 74]","[  613   880  1104  1435  1627  1856  2053  2261  2475  2683  2891  3083
  3269  3483  3675  3867  4069  4288  4480  4688  4917  5115  5349  5568
  5771  5968  6187  6379  6576  6779  7003  7221  7440  7653  7883  8240
  8464  8672  8907  9141  9355  9568  9808 10032 10283 10501 10731 10955
 11179 11413 11648 11893 12155 12373 12608 12864 13077 13301 13515 13717
 13957 14197 14405 14640 14869]",219.0,4,1,1,22.0,0.8996820151152728,46.808759425087246,51.534256464312335
audio-multiple-response,17,114861,0.0-6.0,106,True,v1.1,"[160, 400, 651, 891, 1120, 1381, 1621, 1851, 2101, 2349, 2589, 2829, 3080, 3320, 3571, 3829, 4061, 4309, 4549, 4781, 5021, 5280, 5531, 5771, 6000, 6240, 6509, 6771, 7029, 7280, 7541, 7781, 8040, 8291, 8541, 8800, 9051, 9291, 9541, 9789, 10011, 10200, 10389, 10680, 10920, 11141, 11411, 11661, 11909, 12171, 12411, 12669, 12909, 13149, 13389, 13651, 13901, 14141, 14429, 14691, 14949]",,"[74, 74, 74, 74, 74, 74, 74, 74, 74, 74, 74, 74, 74, 74, 74, 74, 74, 74, 74, 74, 74, 74, 74, 74, 74, 74, 74, 74, 74, 74, 74, 74, 74, 74, 74, 74, 74, 74, 74, 74, 74, 48, 74, 74, 74, 74, 74, 74, 74, 74, 74, 74, 74, 74, 74, 74, 74, 74, 74, 74, 74]",tapping_test,,,IT2,"[74 74 74 74 74 74 74 74 74 74 74 74 74 74 74 74 74 74 74 74 74 74 74 74
 74 74 74 74 74 74 74 74 74 74 74 74 74 74 74 74 74 74 74 74 74 74 74 74
 74 74 74 74 74 74 74 74 74 74 74 74]","[  160   400   651   891  1120  1381  1621  1851  2101  2349  2589  2829
  3080  3320  3571  3829  4061  4309  4549  4781  5021  5280  5531  5771
  6000  6240  6509  6771  7029  7280  7541  7781  8040  8291  8541  8800
  9051  9291  9541  9789 10011 10389 10680 10920 11141 11411 11661 11909
 12171 12411 12669 12909 13149 13389 13651 13901 14141 14429 14691 14949]",250.0,5,0,1,51.0,0.9384672772062651,45.75843857548941,67.71760555896078
audio-multiple-response,17,103489,0.0-6.0,107,True,v1.1,"[891, 1717, 2395, 2987, 3632, 4293, 4960, 5595, 6187, 6768, 7360, 8000, 8608, 9211, 9851, 10512, 11125, 11717, 12315, 12859, 13445, 14080, 14693]",,"[74, 74, 74, 74, 74, 74, 74, 74, 74, 74, 74, 74, 74, 74, 74, 74, 74, 74, 74, 74, 74, 74, 74]",tapping_test,,,IT2,[74 74 74 74 74 74 74 74 74 74 74 74 74 74 74 74 74 74 74 74 74 74 74],"[  891  1717  2395  2987  3632  4293  4960  5595  6187  6768  7360  8000
  8608  9211  9851 10512 11125 11717 12315 12859 13445 14080 14693]",613.0,3,3,0,39.0,0.8632488248935036,47.442100289428296,54.096333339653455
audio-multiple-response,17,191963,0.0-6.0,108,False,v1.1,"[1782, 6310, 7906, 11122]",,"[74, 74, 74, 74]",tapping_test,,,IT2,[74 74 74 74],[ 1782  6310  7906 11122],3216.0,6,0,0,29.0,0.8932948415038182,57.726896694019494,43.83486377944597
audio-multiple-response,17,110107,0.0-6.0,109,False,v1.1,"[163, 1248, 2177, 3053, 3947, 4818, 5869, 6908, 7889, 8800, 9613, 10519, 11384, 12196, 13044, 13851, 14576]",,"[74, 74, 74, 74, 74, 74, 74, 74, 74, 74, 74, 74, 74, 74, 74, 74, 74]",tapping_test,,,IT2,[74 74 74 74 74 74 74 74 74 74 74 74 74 74 74 74 74],"[  163  1248  2177  3053  3947  4818  5869  6908  7889  8800  9613 10519
 11384 12196 13044 13851 14576]",885.0,6,0,0,32.0,0.8914447277085502,49.20822209075247,44.356473590286015
audio-multiple-response,17,851777,0.0-6.0,110,True,v1.1,"[256, 565, 1312, 1589, 1952, 2656, 3115, 3744, 4267, 4832, 5291, 5899, 6443, 6805, 7275, 7765, 8373, 8896, 9408, 9973, 10731, 11179, 11595, 12139, 12384, 12821, 13568, 14101, 14464]",,"[74, 74, 74, 74, 74, 74, 74, 74, 74, 74, 74, 74, 74, 74, 74, 74, 74, 74, 74, 74, 74, 74, 74, 74, 74, 74, 74, 74, 74]",tapping_test,,,IT2,"[74 74 74 74 74 74 74 74 74 74 74 74 74 74 74 74 74 74 74 74 74 74 74 74
 74 74 74 74 74]","[  256   565  1312  1589  1952  2656  3115  3744  4267  4832  5291  5899
  6443  6805  7275  7765  8373  8896  9408  9973 10731 11179 11595 12139
 12384 12821 13568 14101 14464]",517.5,6,0,0,7.0,0.8820646013689682,47.30384767300444,38.909175111401176
audio-multiple-response,17,86078,0.0-6.0,111,False,v1.1,"[589, 960, 1371, 1821, 2301, 2731, 3171, 3640, 4061, 4509, 4931, 5400, 5829, 6280, 6771, 7200, 7629, 8109, 8549, 8960, 9381, 9901, 10309, 10771, 11461, 11920, 12400, 12851, 13349, 13800, 14309, 14771]",,"[74, 74, 74, 74, 74, 74, 74, 74, 74, 74, 74, 74, 74, 74, 74, 74, 74, 74, 74, 74, 74, 74, 74, 74, 74, 74, 74, 74, 74, 74, 74, 74]",tapping_test,,,IT2,"[74 74 74 74 74 74 74 74 74 74 74 74 74 74 74 74 74 74 74 74 74 74 74 74
 74 74 74 74 74 74 74 74]","[  589   960  1371  1821  2301  2731  3171  3640  4061  4509  4931  5400
  5829  6280  6771  7200  7629  8109  8549  8960  9381  9901 10309 10771
 11461 11920 12400 12851 13349 13800 14309 14771]",451.0,1,5,0,1.0,0.08936458627348624,69.73246823946872,1.6397689388967427
audio-multiple-response,17,165712,0.0-6.0,112,True,v1.1,"[544, 1088, 1632, 2176, 2624, 3136, 3648, 4160, 4640, 5088, 5536, 6080, 6592, 7136, 7648, 8160, 8704, 9248, 9760, 10240, 10752, 11264, 11872, 12288, 12800, 13344, 13856, 14368, 14848]",,"[74, 74, 74, 74, 74, 74, 74, 74, 74, 74, 74, 74, 74, 74, 74, 74, 74, 74, 74, 74, 74, 74, 74, 74, 74, 74, 74, 74, 74]",tapping_test,,,IT2,"[74 74 74 74 74 74 74 74 74 74 74 74 74 74 74 74 74 74 74 74 74 74 74 74
 74 74 74 74 74]","[  544  1088  1632  2176  2624  3136  3648  4160  4640  5088  5536  6080
  6592  7136  7648  8160  8704  9248  9760 10240 10752 11264 11872 12288
 12800 13344 13856 14368 14848]",512.0,6,0,0,60.0,0.9537007813331717,50.445455696264645,66.24365732873143
audio-multiple-response,17,137763,0.0-6.0,113,False,v1.1,"[290, 729, 1231, 1710, 2180, 2621, 3100, 3561, 4029, 4499, 4981, 5451, 5941, 6371, 6780, 7250, 7741, 8211, 8710, 9131, 9610, 10060, 10501, 10989, 11421, 11880, 12330, 12820, 13291, 13720, 14231]",,"[74, 74, 74, 74, 74, 74, 74, 74, 74, 74, 74, 74, 74, 74, 74, 74, 74, 74, 74, 74, 74, 74, 74, 74, 74, 74, 74, 74, 74, 74, 74]",tapping_test,,,IT2,"[74 74 74 74 74 74 74 74 74 74 74 74 74 74 74 74 74 74 74 74 74 74 74 74
 74 74 74 74 74 74 74]","[  290   729  1231  1710  2180  2621  3100  3561  4029  4499  4981  5451
  5941  6371  6780  7250  7741  8211  8710  9131  9610 10060 10501 10989
 11421 11880 12330 12820 13291 13720 14231]",470.0,6,0,0,52.0,0.9552194409707992,53.5786313262547,64.9540987925418
